task1,task2,T0,T2,T1,lagT0,lagT1,lagT2,responseT1,responseT2,related,block.thisRepN,block.thisTrialN,block.thisN,block.thisIndex,trial.thisRepN,trial.thisTrialN,trial.thisN,trial.thisIndex,trials_T0_context.thisRepN,trials_T0_context.thisTrialN,trials_T0_context.thisN,trials_T0_context.thisIndex,trials_T1.thisRepN,trials_T1.thisTrialN,trials_T1.thisN,trials_T1.thisIndex,trials_T2.thisRepN,trials_T2.thisTrialN,trials_T2.thisN,trials_T2.thisIndex,text_instructions.started,key_resp.started,key_resp.keys,key_resp.rt,key_resp.duration,context_word.started,blankContext.started,context_word.stopped,blankContext.stopped,distractor_T0,text_distr_T0.started,text_distr_T0.stopped,text_blank_distractors_T0.started,text_blank_distractors_T0.stopped,text_T1.started,text_T1.stopped,text_blank_number_T1.started,text_blank_number_T1.stopped,distractor_T1,text_distr_T1.started,text_distr_T1.stopped,text_blank_distractors_T1.started,text_blank_distractors_T1.stopped,text_T2.started,text_T2.stopped,text_blank_T2_probe.started,text_blank_T2_probe.stopped,distractor_T2,text_distr_T2.started,text_distr_T2.stopped,text_blank_distractors_T2.started,text_blank_distractors_T2.stopped,key_resp_T1.keys,key_resp_T1.corr,blankT2_1.started,text_T2ask.started,key_resp_T2.started,blankT2_1.stopped,text_T2ask.stopped,blankT2_2.started,key_resp_T2.stopped,blankT2_2.stopped,key_resp_T2.keys,key_resp_T2.corr,participant,order [1: single-dual or 2: dual-single],refresh rate (Hz),language,date,expName,psychopyVersion,frameRate,
,,,,,,,,,,,,,,,,,,,,,,,,,,,,,,,23.12320550000004,23.12320550000004,space,1.357837400000335,None,,,,,,,,,,,,,,,,,,,,,,,,,,,,,,,,,,,,,,,,011943,1,60,en,2024-11-26_15h39.08.606,AB,2023.1.3,59.92660189808788,
single,dual,COMB,XBRUSHX,4444444.0,10,3,7,j,f,1,0,0,0,0,0,0,0,0,0,0,0,0,,,,,,,,,,,,,,24.63561269999991,25.631881499999963,25.64859269999988,26.63198569999986,CLJVTPK,26.63198569999986,26.667555300000004,26.667555300000004,26.715349399999923,,,,,,,,,,,,,,,,,,,,,,,,,,,,,,,011943,1,60,en,2024-11-26_15h39.08.606,AB,2023.1.3,59.92660189808788,
single,dual,COMB,XBRUSHX,4444444.0,10,3,7,j,f,1,0,0,0,0,0,0,0,0,1,0,1,0,,,,,,,,,,,,,,,,,,KLNCWRM,26.715349399999923,26.748695900000257,26.748695900000257,26.798656100000244,,,,,,,,,,,,,,,,,,,,,,,,,,,,,,,011943,1,60,en,2024-11-26_15h39.08.606,AB,2023.1.3,59.92660189808788,
single,dual,COMB,XBRUSHX,4444444.0,10,3,7,j,f,1,0,0,0,0,0,0,0,0,2,0,2,0,,,,,,,,,,,,,,,,,,QWYPRCL,26.798656100000244,26.832070400000248,26.832070400000248,26.882001400000263,,,,,,,,,,,,,,,,,,,,,,,,,,,,,,,011943,1,60,en,2024-11-26_15h39.08.606,AB,2023.1.3,59.92660189808788,
single,dual,COMB,XBRUSHX,4444444.0,10,3,7,j,f,1,0,0,0,0,0,0,0,0,3,0,3,0,,,,,,,,,,,,,,,,,,NLJDHGQ,26.882001400000263,26.91546049999988,26.91546049999988,26.965440200000103,,,,,,,,,,,,,,,,,,,,,,,,,,,,,,,011943,1,60,en,2024-11-26_15h39.08.606,AB,2023.1.3,59.92660189808788,
single,dual,COMB,XBRUSHX,4444444.0,10,3,7,j,f,1,0,0,0,0,0,0,0,0,4,0,4,0,,,,,,,,,,,,,,,,,,VSGFLTW,26.965440200000103,26.998684400000002,26.998684400000002,27.04866290000018,,,,,,,,,,,,,,,,,,,,,,,,,,,,,,,011943,1,60,en,2024-11-26_15h39.08.606,AB,2023.1.3,59.92660189808788,
single,dual,COMB,XBRUSHX,4444444.0,10,3,7,j,f,1,0,0,0,0,0,0,0,0,5,0,5,0,,,,,,,,,,,,,,,,,,DPHCXFS,27.04866290000018,27.082022300000062,27.082022300000062,27.13198999999986,,,,,,,,,,,,,,,,,,,,,,,,,,,,,,,011943,1,60,en,2024-11-26_15h39.08.606,AB,2023.1.3,59.92660189808788,
single,dual,COMB,XBRUSHX,4444444.0,10,3,7,j,f,1,0,0,0,0,0,0,0,0,6,0,6,0,,,,,,,,,,,,,,,,,,QSTFPBM,27.13198999999986,27.16537100000005,27.16537100000005,27.215442000000166,,,,,,,,,,,,,,,,,,,,,,,,,,,,,,,011943,1,60,en,2024-11-26_15h39.08.606,AB,2023.1.3,59.92660189808788,
single,dual,COMB,XBRUSHX,4444444.0,10,3,7,j,f,1,0,0,0,0,0,0,0,0,7,0,7,0,,,,,,,,,,,,,,,,,,QLWXVCK,27.215442000000166,27.248685800000203,27.248685800000203,27.298703800000112,,,,,,,,,,,,,,,,,,,,,,,,,,,,,,,011943,1,60,en,2024-11-26_15h39.08.606,AB,2023.1.3,59.92660189808788,
single,dual,COMB,XBRUSHX,4444444.0,10,3,7,j,f,1,0,0,0,0,0,0,0,0,8,0,8,0,,,,,,,,,,,,,,,,,,CYLPQKJ,27.298703800000112,27.332188700000188,27.332188700000188,27.382028099999843,,,,,,,,,,,,,,,,,,,,,,,,,,,,,,,011943,1,60,en,2024-11-26_15h39.08.606,AB,2023.1.3,59.92660189808788,
single,dual,COMB,XBRUSHX,4444444.0,10,3,7,j,f,1,0,0,0,0,0,0,0,0,,,,,0,0,0,0,,,,,,,,,,,,,,,,,,,27.382028099999843,27.41540040000018,27.41540040000018,27.465380200000254,QWRDYNX,27.465380200000254,27.498869099999865,27.498869099999865,27.54868889999989,,,,,,,,,,,,,,,,,,,,,,011943,1,60,en,2024-11-26_15h39.08.606,AB,2023.1.3,59.92660189808788,
single,dual,COMB,XBRUSHX,4444444.0,10,3,7,j,f,1,0,0,0,0,0,0,0,0,,,,,1,0,1,0,,,,,,,,,,,,,,,,,,,,,,,GXZTWPK,27.54868889999989,27.582042,27.582042,27.632042000000183,,,,,,,,,,,,,,,,,,,,,,011943,1,60,en,2024-11-26_15h39.08.606,AB,2023.1.3,59.92660189808788,
single,dual,COMB,XBRUSHX,4444444.0,10,3,7,j,f,1,0,0,0,0,0,0,0,0,,,,,,,,,0,0,0,0,,,,,,,,,,,,,,,,,,,,,,,,27.632042000000183,27.665340300000025,27.665340300000025,27.715490000000045,GXZTWPK,27.715490000000045,27.748862700000245,27.748862700000245,27.798751100000118,,,,,,,,,,,,,011943,1,60,en,2024-11-26_15h39.08.606,AB,2023.1.3,59.92660189808788,
single,dual,COMB,XBRUSHX,4444444.0,10,3,7,j,f,1,0,0,0,0,0,0,0,0,,,,,,,,,1,0,1,0,,,,,,,,,,,,,,,,,,,,,,,,,,,,ZHQSMYC,27.798751100000118,27.83208760000025,27.83208760000025,27.882071200000155,,,,,,,,,,,,,011943,1,60,en,2024-11-26_15h39.08.606,AB,2023.1.3,59.92660189808788,
single,dual,COMB,XBRUSHX,4444444.0,10,3,7,j,f,1,0,0,0,0,0,0,0,0,,,,,,,,,2,0,2,0,,,,,,,,,,,,,,,,,,,,,,,,,,,,PKMRFTL,27.882071200000155,27.91551100000015,27.91551100000015,27.965477900000224,,,,,,,,,,,,,011943,1,60,en,2024-11-26_15h39.08.606,AB,2023.1.3,59.92660189808788,
single,dual,COMB,XBRUSHX,4444444.0,10,3,7,j,f,1,0,0,0,0,0,0,0,0,,,,,,,,,3,0,3,0,,,,,,,,,,,,,,,,,,,,,,,,,,,,ZPMBNQR,27.965477900000224,27.998878599999898,27.998878599999898,28.048712400000113,,,,,,,,,,,,,011943,1,60,en,2024-11-26_15h39.08.606,AB,2023.1.3,59.92660189808788,
single,dual,COMB,XBRUSHX,4444444.0,10,3,7,j,f,1,0,0,0,0,0,0,0,0,,,,,,,,,4,0,4,0,,,,,,,,,,,,,,,,,,,,,,,,,,,,RWYTPZS,28.048712400000113,28.082286899999872,28.082286899999872,28.13208500000019,,,,,,,,,,,,,011943,1,60,en,2024-11-26_15h39.08.606,AB,2023.1.3,59.92660189808788,
single,dual,COMB,XBRUSHX,4444444.0,10,3,7,j,f,1,0,0,0,0,0,0,0,0,,,,,,,,,5,0,5,0,,,,,,,,,,,,,,,,,,,,,,,,,,,,XJZTKSP,28.13208500000019,28.16551269999991,28.16551269999991,28.215444899999966,,,,,,,,,,,,,011943,1,60,en,2024-11-26_15h39.08.606,AB,2023.1.3,59.92660189808788,
single,dual,COMB,XBRUSHX,4444444.0,10,3,7,j,f,1,0,0,0,0,0,0,0,0,,,,,,,,,6,0,6,0,,,,,,,,,,,,,,,,,,,,,,,,,,,,WDGTFPJ,28.215444899999966,28.24876059999997,28.24876059999997,28.298819099999946,,,,,,,,,,,,,011943,1,60,en,2024-11-26_15h39.08.606,AB,2023.1.3,59.92660189808788,
single,dual,COMB,XBRUSHX,4444444.0,10,3,7,j,f,1,0,0,0,0,0,0,0,0,,,,,,,,,,,,,,,,,,,,,,,,,,,,,,,,,,,,,,,,,,,,,None,0,28.298819099999946,29.28220109999984,29.28220109999984,29.299022499999865,31.28245560000005,31.28245560000005,31.28245560000005,32.282353200000216,None,0,011943,1,60,en,2024-11-26_15h39.08.606,AB,2023.1.3,59.92660189808788,
single,dual,PLUMBER,XWHITEX,2222222.0,10,1,9,j,j,0,0,0,0,0,0,1,1,1,0,0,0,0,,,,,,,,,,,,,,32.282353200000216,33.2662777999999,33.282441299999846,34.26580670000021,XTNLRHS,34.2850784000002,34.31671959999994,34.29919380000001,34.349111900000025,,,,,,,,,,,,,,,,,,,,,,,,,,,,,,,011943,1,60,en,2024-11-26_15h39.08.606,AB,2023.1.3,59.92660189808788,
single,dual,PLUMBER,XWHITEX,2222222.0,10,1,9,j,j,0,0,0,0,0,0,1,1,1,1,0,1,0,,,,,,,,,,,,,,,,,,CQFRDNS,34.349111900000025,34.382521500000166,34.382521500000166,34.43246750000026,,,,,,,,,,,,,,,,,,,,,,,,,,,,,,,011943,1,60,en,2024-11-26_15h39.08.606,AB,2023.1.3,59.92660189808788,
single,dual,PLUMBER,XWHITEX,2222222.0,10,1,9,j,j,0,0,0,0,0,0,1,1,1,2,0,2,0,,,,,,,,,,,,,,,,,,PJZHMYV,34.43246750000026,34.46596649999992,34.46596649999992,34.51586989999987,,,,,,,,,,,,,,,,,,,,,,,,,,,,,,,011943,1,60,en,2024-11-26_15h39.08.606,AB,2023.1.3,59.92660189808788,
single,dual,PLUMBER,XWHITEX,2222222.0,10,1,9,j,j,0,0,0,0,0,0,1,1,1,3,0,3,0,,,,,,,,,,,,,,,,,,CJNHXDL,34.51586989999987,34.55165020000004,34.55165020000004,34.599164499999915,,,,,,,,,,,,,,,,,,,,,,,,,,,,,,,011943,1,60,en,2024-11-26_15h39.08.606,AB,2023.1.3,59.92660189808788,
single,dual,PLUMBER,XWHITEX,2222222.0,10,1,9,j,j,0,0,0,0,0,0,1,1,1,4,0,4,0,,,,,,,,,,,,,,,,,,QWGVDKF,34.599164499999915,34.63498789999994,34.63498789999994,34.68246790000012,,,,,,,,,,,,,,,,,,,,,,,,,,,,,,,011943,1,60,en,2024-11-26_15h39.08.606,AB,2023.1.3,59.92660189808788,
single,dual,PLUMBER,XWHITEX,2222222.0,10,1,9,j,j,0,0,0,0,0,0,1,1,1,5,0,5,0,,,,,,,,,,,,,,,,,,KYRFZGC,34.68246790000012,34.7157916000001,34.7157916000001,34.766081300000224,,,,,,,,,,,,,,,,,,,,,,,,,,,,,,,011943,1,60,en,2024-11-26_15h39.08.606,AB,2023.1.3,59.92660189808788,
single,dual,PLUMBER,XWHITEX,2222222.0,10,1,9,j,j,0,0,0,0,0,0,1,1,1,6,0,6,0,,,,,,,,,,,,,,,,,,SHCNMLG,34.766081300000224,34.7992521000001,34.7992521000001,34.849721200000204,,,,,,,,,,,,,,,,,,,,,,,,,,,,,,,011943,1,60,en,2024-11-26_15h39.08.606,AB,2023.1.3,59.92660189808788,
single,dual,PLUMBER,XWHITEX,2222222.0,10,1,9,j,j,0,0,0,0,0,0,1,1,1,7,0,7,0,,,,,,,,,,,,,,,,,,JSVBGNM,34.849721200000204,34.882662099999834,34.882662099999834,34.93249590000005,,,,,,,,,,,,,,,,,,,,,,,,,,,,,,,011943,1,60,en,2024-11-26_15h39.08.606,AB,2023.1.3,59.92660189808788,
single,dual,PLUMBER,XWHITEX,2222222.0,10,1,9,j,j,0,0,0,0,0,0,1,1,1,8,0,8,0,,,,,,,,,,,,,,,,,,DBHVZFM,34.93249590000005,34.96598189999986,34.96598189999986,35.015861400000176,,,,,,,,,,,,,,,,,,,,,,,,,,,,,,,011943,1,60,en,2024-11-26_15h39.08.606,AB,2023.1.3,59.92660189808788,
single,dual,PLUMBER,XWHITEX,2222222.0,10,1,9,j,j,0,0,0,0,0,0,1,1,1,,,,,0,0,0,0,,,,,,,,,,,,,,,,,,,35.015861400000176,35.04938119999997,35.04938119999997,35.099202200000036,,,,,,,,,,,,,,,,,,,,,,,,,,,011943,1,60,en,2024-11-26_15h39.08.606,AB,2023.1.3,59.92660189808788,
single,dual,PLUMBER,XWHITEX,2222222.0,10,1,9,j,j,0,0,0,0,0,0,1,1,1,,,,,,,,,0,0,0,0,,,,,,,,,,,,,,,,,,,,,,,,35.099202200000036,35.132741400000214,35.132741400000214,35.18257189999986,JLRXNQD,35.18257189999986,35.21859929999982,35.21859929999982,35.265871999999945,,,,,,,,,,,,,011943,1,60,en,2024-11-26_15h39.08.606,AB,2023.1.3,59.92660189808788,
single,dual,PLUMBER,XWHITEX,2222222.0,10,1,9,j,j,0,0,0,0,0,0,1,1,1,,,,,,,,,1,0,1,0,,,,,,,,,,,,,,,,,,,,,,,,,,,,NTWMHPZ,35.265871999999945,35.29925120000007,35.29925120000007,35.34917339999993,,,,,,,,,,,,,011943,1,60,en,2024-11-26_15h39.08.606,AB,2023.1.3,59.92660189808788,
single,dual,PLUMBER,XWHITEX,2222222.0,10,1,9,j,j,0,0,0,0,0,0,1,1,1,,,,,,,,,2,0,2,0,,,,,,,,,,,,,,,,,,,,,,,,,,,,VWGYPRK,35.34917339999993,35.38281480000023,35.38281480000023,35.43255020000015,,,,,,,,,,,,,011943,1,60,en,2024-11-26_15h39.08.606,AB,2023.1.3,59.92660189808788,
single,dual,PLUMBER,XWHITEX,2222222.0,10,1,9,j,j,0,0,0,0,0,0,1,1,1,,,,,,,,,3,0,3,0,,,,,,,,,,,,,,,,,,,,,,,,,,,,JLCFKWZ,35.43255020000015,35.46591769999986,35.46591769999986,35.515910500000246,,,,,,,,,,,,,011943,1,60,en,2024-11-26_15h39.08.606,AB,2023.1.3,59.92660189808788,
single,dual,PLUMBER,XWHITEX,2222222.0,10,1,9,j,j,0,0,0,0,0,0,1,1,1,,,,,,,,,4,0,4,0,,,,,,,,,,,,,,,,,,,,,,,,,,,,PVSRKTZ,35.515910500000246,35.54920270000002,35.54920270000002,35.59920360000024,,,,,,,,,,,,,011943,1,60,en,2024-11-26_15h39.08.606,AB,2023.1.3,59.92660189808788,
single,dual,PLUMBER,XWHITEX,2222222.0,10,1,9,j,j,0,0,0,0,0,0,1,1,1,,,,,,,,,5,0,5,0,,,,,,,,,,,,,,,,,,,,,,,,,,,,XCFKBQH,35.59920360000024,35.63267889999997,35.63267889999997,35.68258990000004,,,,,,,,,,,,,011943,1,60,en,2024-11-26_15h39.08.606,AB,2023.1.3,59.92660189808788,
single,dual,PLUMBER,XWHITEX,2222222.0,10,1,9,j,j,0,0,0,0,0,0,1,1,1,,,,,,,,,6,0,6,0,,,,,,,,,,,,,,,,,,,,,,,,,,,,XHNTVQF,35.68258990000004,35.7184857000002,35.7184857000002,35.76605819999986,,,,,,,,,,,,,011943,1,60,en,2024-11-26_15h39.08.606,AB,2023.1.3,59.92660189808788,
single,dual,PLUMBER,XWHITEX,2222222.0,10,1,9,j,j,0,0,0,0,0,0,1,1,1,,,,,,,,,7,0,7,0,,,,,,,,,,,,,,,,,,,,,,,,,,,,DWVTQMF,35.76605819999986,35.799216400000205,35.799216400000205,35.84924120000005,,,,,,,,,,,,,011943,1,60,en,2024-11-26_15h39.08.606,AB,2023.1.3,59.92660189808788,
single,dual,PLUMBER,XWHITEX,2222222.0,10,1,9,j,j,0,0,0,0,0,0,1,1,1,,,,,,,,,8,0,8,0,,,,,,,,,,,,,,,,,,,,,,,,,,,,LFKMHDZ,35.84924120000005,35.88258330000008,35.88258330000008,35.9325859999999,,,,,,,,,,,,,011943,1,60,en,2024-11-26_15h39.08.606,AB,2023.1.3,59.92660189808788,
single,dual,PLUMBER,XWHITEX,2222222.0,10,1,9,j,j,0,0,0,0,0,0,1,1,1,,,,,,,,,,,,,,,,,,,,,,,,,,,,,,,,,,,,,,,,,,,,,None,0,35.9325859999999,36.915966000000026,36.915966000000026,36.93260820000023,38.91607690000001,38.91607690000001,38.91607690000001,39.916230799999994,None,0,011943,1,60,en,2024-11-26_15h39.08.606,AB,2023.1.3,59.92660189808788,
single,dual,DIRT,XXMUDXX,2222222.0,7,3,10,j,f,1,0,0,0,0,0,2,2,2,0,0,0,0,,,,,,,,,,,,,,39.916230799999994,40.91627770000014,40.91627770000014,41.91630500000019,VBSXHCG,41.91630500000019,41.94954439999992,41.94954439999992,41.99987199999987,,,,,,,,,,,,,,,,,,,,,,,,,,,,,,,011943,1,60,en,2024-11-26_15h39.08.606,AB,2023.1.3,59.92660189808788,
single,dual,DIRT,XXMUDXX,2222222.0,7,3,10,j,f,1,0,0,0,0,0,2,2,2,1,0,1,0,,,,,,,,,,,,,,,,,,LGPQNDV,41.99987199999987,42.03289010000026,42.03289010000026,42.082882000000154,,,,,,,,,,,,,,,,,,,,,,,,,,,,,,,011943,1,60,en,2024-11-26_15h39.08.606,AB,2023.1.3,59.92660189808788,
single,dual,DIRT,XXMUDXX,2222222.0,7,3,10,j,f,1,0,0,0,0,0,2,2,2,2,0,2,0,,,,,,,,,,,,,,,,,,JRKNVZB,42.082882000000154,42.11646870000004,42.11646870000004,42.16624469999988,,,,,,,,,,,,,,,,,,,,,,,,,,,,,,,011943,1,60,en,2024-11-26_15h39.08.606,AB,2023.1.3,59.92660189808788,
single,dual,DIRT,XXMUDXX,2222222.0,7,3,10,j,f,1,0,0,0,0,0,2,2,2,3,0,3,0,,,,,,,,,,,,,,,,,,MGBTXRS,42.16624469999988,42.19958050000014,42.19958050000014,42.24957089999998,,,,,,,,,,,,,,,,,,,,,,,,,,,,,,,011943,1,60,en,2024-11-26_15h39.08.606,AB,2023.1.3,59.92660189808788,
single,dual,DIRT,XXMUDXX,2222222.0,7,3,10,j,f,1,0,0,0,0,0,2,2,2,4,0,4,0,,,,,,,,,,,,,,,,,,ZKXYGVN,42.24957089999998,42.28549000000021,42.28549000000021,42.33290650000026,,,,,,,,,,,,,,,,,,,,,,,,,,,,,,,011943,1,60,en,2024-11-26_15h39.08.606,AB,2023.1.3,59.92660189808788,
single,dual,DIRT,XXMUDXX,2222222.0,7,3,10,j,f,1,0,0,0,0,0,2,2,2,5,0,5,0,,,,,,,,,,,,,,,,,,NJWZFVS,42.33290650000026,42.366285699999935,42.366285699999935,42.41623130000016,,,,,,,,,,,,,,,,,,,,,,,,,,,,,,,011943,1,60,en,2024-11-26_15h39.08.606,AB,2023.1.3,59.92660189808788,
single,dual,DIRT,XXMUDXX,2222222.0,7,3,10,j,f,1,0,0,0,0,0,2,2,2,,,,,0,0,0,0,,,,,,,,,,,,,,,,,,,42.41623130000016,42.44956709999997,42.44956709999997,42.499594100000195,PGKSFVR,42.499594100000195,42.532953400000224,42.532953400000224,42.58293430000003,,,,,,,,,,,,,,,,,,,,,,011943,1,60,en,2024-11-26_15h39.08.606,AB,2023.1.3,59.92660189808788,
single,dual,DIRT,XXMUDXX,2222222.0,7,3,10,j,f,1,0,0,0,0,0,2,2,2,,,,,1,0,1,0,,,,,,,,,,,,,,,,,,,,,,,VZFKJNR,42.58293430000003,42.61634540000023,42.61634540000023,42.66641119999986,,,,,,,,,,,,,,,,,,,,,,011943,1,60,en,2024-11-26_15h39.08.606,AB,2023.1.3,59.92660189808788,
single,dual,DIRT,XXMUDXX,2222222.0,7,3,10,j,f,1,0,0,0,0,0,2,2,2,,,,,,,,,0,0,0,0,,,,,,,,,,,,,,,,,,,,,,,,42.66641119999986,42.69962290000012,42.69962290000012,42.74962970000024,VZFKJNR,42.74962970000024,42.78296760000012,42.78296760000012,42.83296590000009,,,,,,,,,,,,,011943,1,60,en,2024-11-26_15h39.08.606,AB,2023.1.3,59.92660189808788,
single,dual,DIRT,XXMUDXX,2222222.0,7,3,10,j,f,1,0,0,0,0,0,2,2,2,,,,,,,,,1,0,1,0,,,,,,,,,,,,,,,,,,,,,,,,,,,,QDTMGPH,42.83296590000009,42.86672929999986,42.86672929999986,42.91628720000017,,,,,,,,,,,,,011943,1,60,en,2024-11-26_15h39.08.606,AB,2023.1.3,59.92660189808788,
single,dual,DIRT,XXMUDXX,2222222.0,7,3,10,j,f,1,0,0,0,0,0,2,2,2,,,,,,,,,2,0,2,0,,,,,,,,,,,,,,,,,,,,,,,,,,,,KZMJSVG,42.91628720000017,42.94963420000022,42.94963420000022,42.99967329999981,,,,,,,,,,,,,011943,1,60,en,2024-11-26_15h39.08.606,AB,2023.1.3,59.92660189808788,
single,dual,DIRT,XXMUDXX,2222222.0,7,3,10,j,f,1,0,0,0,0,0,2,2,2,,,,,,,,,3,0,3,0,,,,,,,,,,,,,,,,,,,,,,,,,,,,CZLHYFT,42.99967329999981,43.03543600000012,43.03543600000012,43.0829490000001,,,,,,,,,,,,,011943,1,60,en,2024-11-26_15h39.08.606,AB,2023.1.3,59.92660189808788,
single,dual,DIRT,XXMUDXX,2222222.0,7,3,10,j,f,1,0,0,0,0,0,2,2,2,,,,,,,,,4,0,4,0,,,,,,,,,,,,,,,,,,,,,,,,,,,,PYWBCXK,43.0829490000001,43.11629589999984,43.11629589999984,43.166350299999976,,,,,,,,,,,,,011943,1,60,en,2024-11-26_15h39.08.606,AB,2023.1.3,59.92660189808788,
single,dual,DIRT,XXMUDXX,2222222.0,7,3,10,j,f,1,0,0,0,0,0,2,2,2,,,,,,,,,5,0,5,0,,,,,,,,,,,,,,,,,,,,,,,,,,,,PTZVNLX,43.166350299999976,43.1996466999999,43.1996466999999,43.24966690000019,,,,,,,,,,,,,011943,1,60,en,2024-11-26_15h39.08.606,AB,2023.1.3,59.92660189808788,
single,dual,DIRT,XXMUDXX,2222222.0,7,3,10,j,f,1,0,0,0,0,0,2,2,2,,,,,,,,,6,0,6,0,,,,,,,,,,,,,,,,,,,,,,,,,,,,FTNMDKZ,43.24966690000019,43.282952300000034,43.282952300000034,43.33426640000016,,,,,,,,,,,,,011943,1,60,en,2024-11-26_15h39.08.606,AB,2023.1.3,59.92660189808788,
single,dual,DIRT,XXMUDXX,2222222.0,7,3,10,j,f,1,0,0,0,0,0,2,2,2,,,,,,,,,7,0,7,0,,,,,,,,,,,,,,,,,,,,,,,,,,,,TVBDFKY,43.33426640000016,43.366338799999994,43.366338799999994,43.41635700000006,,,,,,,,,,,,,011943,1,60,en,2024-11-26_15h39.08.606,AB,2023.1.3,59.92660189808788,
single,dual,DIRT,XXMUDXX,2222222.0,7,3,10,j,f,1,0,0,0,0,0,2,2,2,,,,,,,,,8,0,8,0,,,,,,,,,,,,,,,,,,,,,,,,,,,,RWBNKTL,43.41635700000006,43.44975310000018,43.44975310000018,43.49971390000019,,,,,,,,,,,,,011943,1,60,en,2024-11-26_15h39.08.606,AB,2023.1.3,59.92660189808788,
single,dual,DIRT,XXMUDXX,2222222.0,7,3,10,j,f,1,0,0,0,0,0,2,2,2,,,,,,,,,9,0,9,0,,,,,,,,,,,,,,,,,,,,,,,,,,,,TBFCNXQ,43.49971390000019,43.533086899999944,43.533086899999944,43.582975700000134,,,,,,,,,,,,,011943,1,60,en,2024-11-26_15h39.08.606,AB,2023.1.3,59.92660189808788,
single,dual,DIRT,XXMUDXX,2222222.0,7,3,10,j,f,1,0,0,0,0,0,2,2,2,,,,,,,,,,,,,,,,,,,,,,,,,,,,,,,,,,,,,,,,,,,,,None,0,43.582975700000134,44.56669340000008,44.56669340000008,44.583022000000256,46.56647659999999,46.56647659999999,46.56647659999999,47.566597999999885,None,0,011943,1,60,en,2024-11-26_15h39.08.606,AB,2023.1.3,59.92660189808788,
single,dual,CHALK,XFOGGYX,2222222.0,10,7,3,j,j,0,0,0,0,0,0,3,3,3,0,0,0,0,,,,,,,,,,,,,,47.566597999999885,48.566617699999824,48.566617699999824,49.56667849999985,HNDKTFB,49.56667849999985,49.59995119999985,49.59995119999985,49.65002060000006,,,,,,,,,,,,,,,,,,,,,,,,,,,,,,,011943,1,60,en,2024-11-26_15h39.08.606,AB,2023.1.3,59.92660189808788,
single,dual,CHALK,XFOGGYX,2222222.0,10,7,3,j,j,0,0,0,0,0,0,3,3,3,1,0,1,0,,,,,,,,,,,,,,,,,,MDXCGTB,49.65002060000006,49.68335750000006,49.68335750000006,49.733297799999946,,,,,,,,,,,,,,,,,,,,,,,,,,,,,,,011943,1,60,en,2024-11-26_15h39.08.606,AB,2023.1.3,59.92660189808788,
single,dual,CHALK,XFOGGYX,2222222.0,10,7,3,j,j,0,0,0,0,0,0,3,3,3,2,0,2,0,,,,,,,,,,,,,,,,,,KYDCWQT,49.733297799999946,49.766824299999826,49.766824299999826,49.81668230000014,,,,,,,,,,,,,,,,,,,,,,,,,,,,,,,011943,1,60,en,2024-11-26_15h39.08.606,AB,2023.1.3,59.92660189808788,
single,dual,CHALK,XFOGGYX,2222222.0,10,7,3,j,j,0,0,0,0,0,0,3,3,3,3,0,3,0,,,,,,,,,,,,,,,,,,VSCQJZB,49.81668230000014,49.85011050000003,49.85011050000003,49.89999970000008,,,,,,,,,,,,,,,,,,,,,,,,,,,,,,,011943,1,60,en,2024-11-26_15h39.08.606,AB,2023.1.3,59.92660189808788,
single,dual,CHALK,XFOGGYX,2222222.0,10,7,3,j,j,0,0,0,0,0,0,3,3,3,4,0,4,0,,,,,,,,,,,,,,,,,,LKFRMJN,49.89999970000008,49.933422300000075,49.933422300000075,49.9834122000002,,,,,,,,,,,,,,,,,,,,,,,,,,,,,,,011943,1,60,en,2024-11-26_15h39.08.606,AB,2023.1.3,59.92660189808788,
single,dual,CHALK,XFOGGYX,2222222.0,10,7,3,j,j,0,0,0,0,0,0,3,3,3,5,0,5,0,,,,,,,,,,,,,,,,,,XKJLPCV,49.9834122000002,50.01680290000013,50.01680290000013,50.06671439999991,,,,,,,,,,,,,,,,,,,,,,,,,,,,,,,011943,1,60,en,2024-11-26_15h39.08.606,AB,2023.1.3,59.92660189808788,
single,dual,CHALK,XFOGGYX,2222222.0,10,7,3,j,j,0,0,0,0,0,0,3,3,3,6,0,6,0,,,,,,,,,,,,,,,,,,CVNKWFQ,50.06671439999991,50.09998840000026,50.09998840000026,50.15000000000009,,,,,,,,,,,,,,,,,,,,,,,,,,,,,,,011943,1,60,en,2024-11-26_15h39.08.606,AB,2023.1.3,59.92660189808788,
single,dual,CHALK,XFOGGYX,2222222.0,10,7,3,j,j,0,0,0,0,0,0,3,3,3,7,0,7,0,,,,,,,,,,,,,,,,,,XSWVFGQ,50.15000000000009,50.183524800000214,50.183524800000214,50.23359019999998,,,,,,,,,,,,,,,,,,,,,,,,,,,,,,,011943,1,60,en,2024-11-26_15h39.08.606,AB,2023.1.3,59.92660189808788,
single,dual,CHALK,XFOGGYX,2222222.0,10,7,3,j,j,0,0,0,0,0,0,3,3,3,8,0,8,0,,,,,,,,,,,,,,,,,,BWTFXRC,50.23359019999998,50.26680119999992,50.26680119999992,50.31671920000008,,,,,,,,,,,,,,,,,,,,,,,,,,,,,,,011943,1,60,en,2024-11-26_15h39.08.606,AB,2023.1.3,59.92660189808788,
single,dual,CHALK,XFOGGYX,2222222.0,10,7,3,j,j,0,0,0,0,0,0,3,3,3,,,,,0,0,0,0,,,,,,,,,,,,,,,,,,,50.31671920000008,50.3502069000001,50.3502069000001,50.400070499999856,KWBVCLT,50.400070499999856,50.433434800000214,50.433434800000214,50.48339620000024,,,,,,,,,,,,,,,,,,,,,,011943,1,60,en,2024-11-26_15h39.08.606,AB,2023.1.3,59.92660189808788,
single,dual,CHALK,XFOGGYX,2222222.0,10,7,3,j,j,0,0,0,0,0,0,3,3,3,,,,,1,0,1,0,,,,,,,,,,,,,,,,,,,,,,,YWGMNSJ,50.48339620000024,50.51669760000004,50.51669760000004,50.56686140000011,,,,,,,,,,,,,,,,,,,,,,011943,1,60,en,2024-11-26_15h39.08.606,AB,2023.1.3,59.92660189808788,
single,dual,CHALK,XFOGGYX,2222222.0,10,7,3,j,j,0,0,0,0,0,0,3,3,3,,,,,2,0,2,0,,,,,,,,,,,,,,,,,,,,,,,PRVMSGK,50.56686140000011,50.600035599999956,50.600035599999956,50.650040999999874,,,,,,,,,,,,,,,,,,,,,,011943,1,60,en,2024-11-26_15h39.08.606,AB,2023.1.3,59.92660189808788,
single,dual,CHALK,XFOGGYX,2222222.0,10,7,3,j,j,0,0,0,0,0,0,3,3,3,,,,,3,0,3,0,,,,,,,,,,,,,,,,,,,,,,,JKSHCBQ,50.650040999999874,50.683425799999895,50.683425799999895,50.73334460000024,,,,,,,,,,,,,,,,,,,,,,011943,1,60,en,2024-11-26_15h39.08.606,AB,2023.1.3,59.92660189808788,
single,dual,CHALK,XFOGGYX,2222222.0,10,7,3,j,j,0,0,0,0,0,0,3,3,3,,,,,4,0,4,0,,,,,,,,,,,,,,,,,,,,,,,WGYKVFC,50.73334460000024,50.76708640000015,50.76708640000015,50.81674090000024,,,,,,,,,,,,,,,,,,,,,,011943,1,60,en,2024-11-26_15h39.08.606,AB,2023.1.3,59.92660189808788,
single,dual,CHALK,XFOGGYX,2222222.0,10,7,3,j,j,0,0,0,0,0,0,3,3,3,,,,,5,0,5,0,,,,,,,,,,,,,,,,,,,,,,,TDNZVCW,50.81674090000024,50.850178400000004,50.850178400000004,50.90001209999991,,,,,,,,,,,,,,,,,,,,,,011943,1,60,en,2024-11-26_15h39.08.606,AB,2023.1.3,59.92660189808788,
single,dual,CHALK,XFOGGYX,2222222.0,10,7,3,j,j,0,0,0,0,0,0,3,3,3,,,,,,,,,0,0,0,0,,,,,,,,,,,,,,,,,,,,,,,,50.90001209999991,50.93339130000004,50.93339130000004,50.983374899999944,TDNZVCW,50.983374899999944,51.016742599999816,51.016742599999816,51.066703999999845,,,,,,,,,,,,,011943,1,60,en,2024-11-26_15h39.08.606,AB,2023.1.3,59.92660189808788,
single,dual,CHALK,XFOGGYX,2222222.0,10,7,3,j,j,0,0,0,0,0,0,3,3,3,,,,,,,,,1,0,1,0,,,,,,,,,,,,,,,,,,,,,,,,,,,,KYCGXDT,51.066703999999845,51.10008860000016,51.10008860000016,51.15011649999997,,,,,,,,,,,,,011943,1,60,en,2024-11-26_15h39.08.606,AB,2023.1.3,59.92660189808788,
single,dual,CHALK,XFOGGYX,2222222.0,10,7,3,j,j,0,0,0,0,0,0,3,3,3,,,,,,,,,2,0,2,0,,,,,,,,,,,,,,,,,,,,,,,,,,,,PZKHSTN,51.15011649999997,51.183400899999924,51.183400899999924,51.233507700000246,,,,,,,,,,,,,011943,1,60,en,2024-11-26_15h39.08.606,AB,2023.1.3,59.92660189808788,
single,dual,CHALK,XFOGGYX,2222222.0,10,7,3,j,j,0,0,0,0,0,0,3,3,3,,,,,,,,,,,,,,,,,,,,,,,,,,,,,,,,,,,,,,,,,,,,,None,0,51.233507700000246,52.216809399999875,52.216809399999875,52.233498300000065,54.21693189999996,54.21693189999996,54.21693189999996,55.216995600000246,None,0,011943,1,60,en,2024-11-26_15h39.08.606,AB,2023.1.3,59.92660189808788,
single,dual,STAB,XXAGEXX,6666666.0,7,7,6,j,j,0,0,0,0,0,0,4,4,4,0,0,0,0,,,,,,,,,,,,,,55.216995600000246,56.21705150000025,56.21705150000025,57.21713120000004,SYLCVHF,57.21713120000004,57.25041850000025,57.25041850000025,57.30042839999987,,,,,,,,,,,,,,,,,,,,,,,,,,,,,,,011943,1,60,en,2024-11-26_15h39.08.606,AB,2023.1.3,59.92660189808788,
single,dual,STAB,XXAGEXX,6666666.0,7,7,6,j,j,0,0,0,0,0,0,4,4,4,1,0,1,0,,,,,,,,,,,,,,,,,,RGXNBKS,57.30042839999987,57.3338604999999,57.3338604999999,57.383735400000205,,,,,,,,,,,,,,,,,,,,,,,,,,,,,,,011943,1,60,en,2024-11-26_15h39.08.606,AB,2023.1.3,59.92660189808788,
single,dual,STAB,XXAGEXX,6666666.0,7,7,6,j,j,0,0,0,0,0,0,4,4,4,2,0,2,0,,,,,,,,,,,,,,,,,,NLXGZRT,57.383735400000205,57.4171495999999,57.4171495999999,57.46707520000018,,,,,,,,,,,,,,,,,,,,,,,,,,,,,,,011943,1,60,en,2024-11-26_15h39.08.606,AB,2023.1.3,59.92660189808788,
single,dual,STAB,XXAGEXX,6666666.0,7,7,6,j,j,0,0,0,0,0,0,4,4,4,3,0,3,0,,,,,,,,,,,,,,,,,,FPXKNDH,57.46707520000018,57.500489200000175,57.500489200000175,57.550434300000234,,,,,,,,,,,,,,,,,,,,,,,,,,,,,,,011943,1,60,en,2024-11-26_15h39.08.606,AB,2023.1.3,59.92660189808788,
single,dual,STAB,XXAGEXX,6666666.0,7,7,6,j,j,0,0,0,0,0,0,4,4,4,4,0,4,0,,,,,,,,,,,,,,,,,,MLNGTPY,57.550434300000234,57.58377610000025,57.58377610000025,57.63374479999993,,,,,,,,,,,,,,,,,,,,,,,,,,,,,,,011943,1,60,en,2024-11-26_15h39.08.606,AB,2023.1.3,59.92660189808788,
single,dual,STAB,XXAGEXX,6666666.0,7,7,6,j,j,0,0,0,0,0,0,4,4,4,5,0,5,0,,,,,,,,,,,,,,,,,,FTJXDZS,57.63374479999993,57.66738910000004,57.66738910000004,57.71715959999983,,,,,,,,,,,,,,,,,,,,,,,,,,,,,,,011943,1,60,en,2024-11-26_15h39.08.606,AB,2023.1.3,59.92660189808788,
single,dual,STAB,XXAGEXX,6666666.0,7,7,6,j,j,0,0,0,0,0,0,4,4,4,,,,,0,0,0,0,,,,,,,,,,,,,,,,,,,57.71715959999983,57.75046620000012,57.75046620000012,57.8004476000001,XVNWLPB,57.8004476000001,57.8338346999999,57.8338346999999,57.88380649999999,,,,,,,,,,,,,,,,,,,,,,011943,1,60,en,2024-11-26_15h39.08.606,AB,2023.1.3,59.92660189808788,
single,dual,STAB,XXAGEXX,6666666.0,7,7,6,j,j,0,0,0,0,0,0,4,4,4,,,,,1,0,1,0,,,,,,,,,,,,,,,,,,,,,,,JHDVFBZ,57.88380649999999,57.917170799999894,57.917170799999894,57.967136499999924,,,,,,,,,,,,,,,,,,,,,,011943,1,60,en,2024-11-26_15h39.08.606,AB,2023.1.3,59.92660189808788,
single,dual,STAB,XXAGEXX,6666666.0,7,7,6,j,j,0,0,0,0,0,0,4,4,4,,,,,2,0,2,0,,,,,,,,,,,,,,,,,,,,,,,BXHZTJF,57.967136499999924,58.000477800000226,58.000477800000226,58.05047849999983,,,,,,,,,,,,,,,,,,,,,,011943,1,60,en,2024-11-26_15h39.08.606,AB,2023.1.3,59.92660189808788,
single,dual,STAB,XXAGEXX,6666666.0,7,7,6,j,j,0,0,0,0,0,0,4,4,4,,,,,3,0,3,0,,,,,,,,,,,,,,,,,,,,,,,MWSZHYT,58.05047849999983,58.083780899999965,58.083780899999965,58.13378550000016,,,,,,,,,,,,,,,,,,,,,,011943,1,60,en,2024-11-26_15h39.08.606,AB,2023.1.3,59.92660189808788,
single,dual,STAB,XXAGEXX,6666666.0,7,7,6,j,j,0,0,0,0,0,0,4,4,4,,,,,4,0,4,0,,,,,,,,,,,,,,,,,,,,,,,PTFSDBW,58.13378550000016,58.16710060000014,58.16710060000014,58.21720520000008,,,,,,,,,,,,,,,,,,,,,,011943,1,60,en,2024-11-26_15h39.08.606,AB,2023.1.3,59.92660189808788,
single,dual,STAB,XXAGEXX,6666666.0,7,7,6,j,j,0,0,0,0,0,0,4,4,4,,,,,5,0,5,0,,,,,,,,,,,,,,,,,,,,,,,WTYMBSL,58.21720520000008,58.25048740000011,58.25048740000011,58.300712600000224,,,,,,,,,,,,,,,,,,,,,,011943,1,60,en,2024-11-26_15h39.08.606,AB,2023.1.3,59.92660189808788,
single,dual,STAB,XXAGEXX,6666666.0,7,7,6,j,j,0,0,0,0,0,0,4,4,4,,,,,,,,,0,0,0,0,,,,,,,,,,,,,,,,,,,,,,,,58.300712600000224,58.3337961000002,58.3337961000002,58.38378569999986,WTYMBSL,58.38378569999986,58.41713740000023,58.41713740000023,58.46720289999985,,,,,,,,,,,,,011943,1,60,en,2024-11-26_15h39.08.606,AB,2023.1.3,59.92660189808788,
single,dual,STAB,XXAGEXX,6666666.0,7,7,6,j,j,0,0,0,0,0,0,4,4,4,,,,,,,,,1,0,1,0,,,,,,,,,,,,,,,,,,,,,,,,,,,,MKVWNCD,58.46720289999985,58.50048370000013,58.50048370000013,58.5504804000002,,,,,,,,,,,,,011943,1,60,en,2024-11-26_15h39.08.606,AB,2023.1.3,59.92660189808788,
single,dual,STAB,XXAGEXX,6666666.0,7,7,6,j,j,0,0,0,0,0,0,4,4,4,,,,,,,,,2,0,2,0,,,,,,,,,,,,,,,,,,,,,,,,,,,,HPGTWKV,58.5504804000002,58.58396640000001,58.58396640000001,58.63383160000012,,,,,,,,,,,,,011943,1,60,en,2024-11-26_15h39.08.606,AB,2023.1.3,59.92660189808788,
single,dual,STAB,XXAGEXX,6666666.0,7,7,6,j,j,0,0,0,0,0,0,4,4,4,,,,,,,,,3,0,3,0,,,,,,,,,,,,,,,,,,,,,,,,,,,,VZCKGNQ,58.63383160000012,58.66971430000012,58.66971430000012,58.71743000000015,,,,,,,,,,,,,011943,1,60,en,2024-11-26_15h39.08.606,AB,2023.1.3,59.92660189808788,
single,dual,STAB,XXAGEXX,6666666.0,7,7,6,j,j,0,0,0,0,0,0,4,4,4,,,,,,,,,4,0,4,0,,,,,,,,,,,,,,,,,,,,,,,,,,,,DCYRVXN,58.71743000000015,58.750602999999956,58.750602999999956,58.80052879999994,,,,,,,,,,,,,011943,1,60,en,2024-11-26_15h39.08.606,AB,2023.1.3,59.92660189808788,
single,dual,STAB,XXAGEXX,6666666.0,7,7,6,j,j,0,0,0,0,0,0,4,4,4,,,,,,,,,5,0,5,0,,,,,,,,,,,,,,,,,,,,,,,,,,,,FCKHQDJ,58.80052879999994,58.833829199999855,58.833829199999855,58.884000500000184,,,,,,,,,,,,,011943,1,60,en,2024-11-26_15h39.08.606,AB,2023.1.3,59.92660189808788,
single,dual,STAB,XXAGEXX,6666666.0,7,7,6,j,j,0,0,0,0,0,0,4,4,4,,,,,,,,,,,,,,,,,,,,,,,,,,,,,,,,,,,,,,,,,,,,,None,0,58.884000500000184,59.867431900000156,59.867431900000156,59.88388709999981,61.86742090000007,61.86742090000007,61.86742090000007,62.86741579999989,None,0,011943,1,60,en,2024-11-26_15h39.08.606,AB,2023.1.3,59.92660189808788,
single,dual,LECTURE,XXSEWXX,3333333.0,10,1,9,f,j,0,0,0,0,0,0,5,5,5,0,0,0,0,,,,,,,,,,,,,,62.86741579999989,63.86756999999989,63.86756999999989,,DGKXSTW,64.86770109999998,64.9008386999999,64.9008386999999,64.95089020000023,,,,,,,,,,,,,,,,,,,,,,,,,,,,,,,011943,1,60,en,2024-11-26_15h39.08.606,AB,2023.1.3,59.92660189808788,
single,dual,LECTURE,XXSEWXX,3333333.0,10,1,9,f,j,0,0,0,0,0,0,5,5,5,1,0,1,0,,,,,,,,,,,,,,,,,,QGKCHLB,64.95089020000023,64.98419120000017,64.98419120000017,65.03420520000009,,,,,,,,,,,,,,,,,,,,,,,,,,,,,,,011943,1,60,en,2024-11-26_15h39.08.606,AB,2023.1.3,59.92660189808788,
single,dual,LECTURE,XXSEWXX,3333333.0,10,1,9,f,j,0,0,0,0,0,0,5,5,5,2,0,2,0,,,,,,,,,,,,,,,,,,QVBMFNH,65.03420520000009,65.06750680000005,65.06750680000005,65.11760300000014,,,,,,,,,,,,,,,,,,,,,,,,,,,,,,,011943,1,60,en,2024-11-26_15h39.08.606,AB,2023.1.3,59.92660189808788,
single,dual,LECTURE,XXSEWXX,3333333.0,10,1,9,f,j,0,0,0,0,0,0,5,5,5,3,0,3,0,,,,,,,,,,,,,,,,,,NHGJTLP,65.11760300000014,65.15099270000019,65.15099270000019,65.20102039999983,,,,,,,,,,,,,,,,,,,,,,,,,,,,,,,011943,1,60,en,2024-11-26_15h39.08.606,AB,2023.1.3,59.92660189808788,
single,dual,LECTURE,XXSEWXX,3333333.0,10,1,9,f,j,0,0,0,0,0,0,5,5,5,4,0,4,0,,,,,,,,,,,,,,,,,,BXCHNDG,65.20102039999983,65.23672420000003,65.23672420000003,65.28428209999993,,,,,,,,,,,,,,,,,,,,,,,,,,,,,,,011943,1,60,en,2024-11-26_15h39.08.606,AB,2023.1.3,59.92660189808788,
single,dual,LECTURE,XXSEWXX,3333333.0,10,1,9,f,j,0,0,0,0,0,0,5,5,5,5,0,5,0,,,,,,,,,,,,,,,,,,YKHJDFR,65.28428209999993,65.31754950000004,65.31754950000004,65.36755200000016,,,,,,,,,,,,,,,,,,,,,,,,,,,,,,,011943,1,60,en,2024-11-26_15h39.08.606,AB,2023.1.3,59.92660189808788,
single,dual,LECTURE,XXSEWXX,3333333.0,10,1,9,f,j,0,0,0,0,0,0,5,5,5,6,0,6,0,,,,,,,,,,,,,,,,,,FPQSBJD,65.36755200000016,65.40084560000014,65.40084560000014,65.45085130000007,,,,,,,,,,,,,,,,,,,,,,,,,,,,,,,011943,1,60,en,2024-11-26_15h39.08.606,AB,2023.1.3,59.92660189808788,
single,dual,LECTURE,XXSEWXX,3333333.0,10,1,9,f,j,0,0,0,0,0,0,5,5,5,7,0,7,0,,,,,,,,,,,,,,,,,,KSMZFTQ,65.45085130000007,65.48420380000016,65.48420380000016,65.53422039999987,,,,,,,,,,,,,,,,,,,,,,,,,,,,,,,011943,1,60,en,2024-11-26_15h39.08.606,AB,2023.1.3,59.92660189808788,
single,dual,LECTURE,XXSEWXX,3333333.0,10,1,9,f,j,0,0,0,0,0,0,5,5,5,8,0,8,0,,,,,,,,,,,,,,,,,,BKTDMQZ,65.53422039999987,65.56756450000012,65.56756450000012,65.61777100000018,,,,,,,,,,,,,,,,,,,,,,,,,,,,,,,011943,1,60,en,2024-11-26_15h39.08.606,AB,2023.1.3,59.92660189808788,
single,dual,LECTURE,XXSEWXX,3333333.0,10,1,9,f,j,0,0,0,0,0,0,5,5,5,,,,,0,0,0,0,,,,,,,,,,,,,,,,,,,65.61777100000018,65.65087390000008,65.65087390000008,65.70090930000015,,,,,,,,,,,,,,,,,,,,,,,,,,,011943,1,60,en,2024-11-26_15h39.08.606,AB,2023.1.3,59.92660189808788,
single,dual,LECTURE,XXSEWXX,3333333.0,10,1,9,f,j,0,0,0,0,0,0,5,5,5,,,,,,,,,0,0,0,0,,,,,,,,,,,,,,,,,,,,,,,,65.70090930000015,65.73434390000011,65.73434390000011,65.78421419999995,NQZGKRL,65.78421419999995,65.81755650000014,65.81755650000014,65.8677044000001,,,,,,,,,,,,,011943,1,60,en,2024-11-26_15h39.08.606,AB,2023.1.3,59.92660189808788,
single,dual,LECTURE,XXSEWXX,3333333.0,10,1,9,f,j,0,0,0,0,0,0,5,5,5,,,,,,,,,1,0,1,0,,,,,,,,,,,,,,,,,,,,,,,,,,,,HDRFPGY,65.8677044000001,65.90085660000022,65.90085660000022,65.95090770000024,,,,,,,,,,,,,011943,1,60,en,2024-11-26_15h39.08.606,AB,2023.1.3,59.92660189808788,
single,dual,LECTURE,XXSEWXX,3333333.0,10,1,9,f,j,0,0,0,0,0,0,5,5,5,,,,,,,,,2,0,2,0,,,,,,,,,,,,,,,,,,,,,,,,,,,,QWPZCLT,65.95090770000024,65.9867850999999,65.9867850999999,66.03422080000018,,,,,,,,,,,,,011943,1,60,en,2024-11-26_15h39.08.606,AB,2023.1.3,59.92660189808788,
single,dual,LECTURE,XXSEWXX,3333333.0,10,1,9,f,j,0,0,0,0,0,0,5,5,5,,,,,,,,,3,0,3,0,,,,,,,,,,,,,,,,,,,,,,,,,,,,NLSRKMJ,66.03422080000018,66.06777680000005,66.06777680000005,66.11759080000002,,,,,,,,,,,,,011943,1,60,en,2024-11-26_15h39.08.606,AB,2023.1.3,59.92660189808788,
single,dual,LECTURE,XXSEWXX,3333333.0,10,1,9,f,j,0,0,0,0,0,0,5,5,5,,,,,,,,,4,0,4,0,,,,,,,,,,,,,,,,,,,,,,,,,,,,BMTDRKQ,66.11759080000002,66.15117509999982,66.15117509999982,66.20087039999999,,,,,,,,,,,,,011943,1,60,en,2024-11-26_15h39.08.606,AB,2023.1.3,59.92660189808788,
single,dual,LECTURE,XXSEWXX,3333333.0,10,1,9,f,j,0,0,0,0,0,0,5,5,5,,,,,,,,,5,0,5,0,,,,,,,,,,,,,,,,,,,,,,,,,,,,WNVXZQF,66.20087039999999,66.23423090000006,66.23423090000006,66.28426810000019,,,,,,,,,,,,,011943,1,60,en,2024-11-26_15h39.08.606,AB,2023.1.3,59.92660189808788,
single,dual,LECTURE,XXSEWXX,3333333.0,10,1,9,f,j,0,0,0,0,0,0,5,5,5,,,,,,,,,6,0,6,0,,,,,,,,,,,,,,,,,,,,,,,,,,,,WDMLJGC,66.28426810000019,66.31763690000025,66.31763690000025,66.37009410000019,,,,,,,,,,,,,011943,1,60,en,2024-11-26_15h39.08.606,AB,2023.1.3,59.92660189808788,
single,dual,LECTURE,XXSEWXX,3333333.0,10,1,9,f,j,0,0,0,0,0,0,5,5,5,,,,,,,,,7,0,7,0,,,,,,,,,,,,,,,,,,,,,,,,,,,,GXJBNWP,66.37009410000019,66.4009317,66.4009317,66.45090759999994,,,,,,,,,,,,,011943,1,60,en,2024-11-26_15h39.08.606,AB,2023.1.3,59.92660189808788,
single,dual,LECTURE,XXSEWXX,3333333.0,10,1,9,f,j,0,0,0,0,0,0,5,5,5,,,,,,,,,8,0,8,0,,,,,,,,,,,,,,,,,,,,,,,,,,,,YQZHDGF,66.45090759999994,66.48431370000026,66.48431370000026,66.53468310000017,,,,,,,,,,,,,011943,1,60,en,2024-11-26_15h39.08.606,AB,2023.1.3,59.92660189808788,
single,dual,LECTURE,XXSEWXX,3333333.0,10,1,9,f,j,0,0,0,0,0,0,5,5,5,,,,,,,,,,,,,,,,,,,,,,,,,,,,,,,,,,,,,,,,,,,,,None,0,66.53468310000017,67.51766580000003,67.51766580000003,67.5343054,69.51781170000004,69.51781170000004,69.51781170000004,70.51784120000002,None,0,011943,1,60,en,2024-11-26_15h39.08.606,AB,2023.1.3,59.92660189808788,
single,dual,LEAVE,SHALLOW,8888888.0,7,1,12,j,j,0,0,0,0,0,0,6,6,6,0,0,0,0,,,,,,,,,,,,,,70.51784120000002,71.5179392,71.5179392,72.51794830000017,LNGJWFC,72.51794830000017,72.55129930000021,72.55129930000021,72.60134049999988,,,,,,,,,,,,,,,,,,,,,,,,,,,,,,,011943,1,60,en,2024-11-26_15h39.08.606,AB,2023.1.3,59.92660189808788,
single,dual,LEAVE,SHALLOW,8888888.0,7,1,12,j,j,0,0,0,0,0,0,6,6,6,1,0,1,0,,,,,,,,,,,,,,,,,,YWZSJFC,72.60134049999988,72.63474840000026,72.63474840000026,72.68462550000004,,,,,,,,,,,,,,,,,,,,,,,,,,,,,,,011943,1,60,en,2024-11-26_15h39.08.606,AB,2023.1.3,59.92660189808788,
single,dual,LEAVE,SHALLOW,8888888.0,7,1,12,j,j,0,0,0,0,0,0,6,6,6,2,0,2,0,,,,,,,,,,,,,,,,,,BFKMRNQ,72.68462550000004,72.71792480000022,72.71792480000022,72.76795200000015,,,,,,,,,,,,,,,,,,,,,,,,,,,,,,,011943,1,60,en,2024-11-26_15h39.08.606,AB,2023.1.3,59.92660189808788,
single,dual,LEAVE,SHALLOW,8888888.0,7,1,12,j,j,0,0,0,0,0,0,6,6,6,3,0,3,0,,,,,,,,,,,,,,,,,,ZXHMSBC,72.76795200000015,72.80136889999994,72.80136889999994,72.8513339000001,,,,,,,,,,,,,,,,,,,,,,,,,,,,,,,011943,1,60,en,2024-11-26_15h39.08.606,AB,2023.1.3,59.92660189808788,
single,dual,LEAVE,SHALLOW,8888888.0,7,1,12,j,j,0,0,0,0,0,0,6,6,6,4,0,4,0,,,,,,,,,,,,,,,,,,VFLXDBR,72.8513339000001,72.88476300000002,72.88476300000002,72.93463380000003,,,,,,,,,,,,,,,,,,,,,,,,,,,,,,,011943,1,60,en,2024-11-26_15h39.08.606,AB,2023.1.3,59.92660189808788,
single,dual,LEAVE,SHALLOW,8888888.0,7,1,12,j,j,0,0,0,0,0,0,6,6,6,5,0,5,0,,,,,,,,,,,,,,,,,,CWFZPHX,72.93463380000003,72.96809819999999,72.96809819999999,73.01794210000025,,,,,,,,,,,,,,,,,,,,,,,,,,,,,,,011943,1,60,en,2024-11-26_15h39.08.606,AB,2023.1.3,59.92660189808788,
single,dual,LEAVE,SHALLOW,8888888.0,7,1,12,j,j,0,0,0,0,0,0,6,6,6,,,,,0,0,0,0,,,,,,,,,,,,,,,,,,,73.01794210000025,73.05171810000002,73.05171810000002,73.10132449999992,,,,,,,,,,,,,,,,,,,,,,,,,,,011943,1,60,en,2024-11-26_15h39.08.606,AB,2023.1.3,59.92660189808788,
single,dual,LEAVE,SHALLOW,8888888.0,7,1,12,j,j,0,0,0,0,0,0,6,6,6,,,,,,,,,0,0,0,0,,,,,,,,,,,,,,,,,,,,,,,,73.10132449999992,73.13466299999982,73.13466299999982,73.18464249999988,FZCRNBM,73.18464249999988,73.21794640000007,73.21794640000007,73.26794830000017,,,,,,,,,,,,,011943,1,60,en,2024-11-26_15h39.08.606,AB,2023.1.3,59.92660189808788,
single,dual,LEAVE,SHALLOW,8888888.0,7,1,12,j,j,0,0,0,0,0,0,6,6,6,,,,,,,,,1,0,1,0,,,,,,,,,,,,,,,,,,,,,,,,,,,,FGWQYNS,73.26794830000017,73.30141000000003,73.30141000000003,73.353971,,,,,,,,,,,,,011943,1,60,en,2024-11-26_15h39.08.606,AB,2023.1.3,59.92660189808788,
single,dual,LEAVE,SHALLOW,8888888.0,7,1,12,j,j,0,0,0,0,0,0,6,6,6,,,,,,,,,2,0,2,0,,,,,,,,,,,,,,,,,,,,,,,,,,,,GTHXZVB,73.353971,73.3847522000001,73.3847522000001,73.4347444,,,,,,,,,,,,,011943,1,60,en,2024-11-26_15h39.08.606,AB,2023.1.3,59.92660189808788,
single,dual,LEAVE,SHALLOW,8888888.0,7,1,12,j,j,0,0,0,0,0,0,6,6,6,,,,,,,,,3,0,3,0,,,,,,,,,,,,,,,,,,,,,,,,,,,,CKTXDLB,73.4347444,73.46807369999988,73.46807369999988,73.5179905,,,,,,,,,,,,,011943,1,60,en,2024-11-26_15h39.08.606,AB,2023.1.3,59.92660189808788,
single,dual,LEAVE,SHALLOW,8888888.0,7,1,12,j,j,0,0,0,0,0,0,6,6,6,,,,,,,,,4,0,4,0,,,,,,,,,,,,,,,,,,,,,,,,,,,,QBGSHNP,73.5179905,73.55133990000013,73.55133990000013,73.60131219999994,,,,,,,,,,,,,011943,1,60,en,2024-11-26_15h39.08.606,AB,2023.1.3,59.92660189808788,
single,dual,LEAVE,SHALLOW,8888888.0,7,1,12,j,j,0,0,0,0,0,0,6,6,6,,,,,,,,,5,0,5,0,,,,,,,,,,,,,,,,,,,,,,,,,,,,CBPQLJR,73.60131219999994,73.63468610000018,73.63468610000018,73.684706,,,,,,,,,,,,,011943,1,60,en,2024-11-26_15h39.08.606,AB,2023.1.3,59.92660189808788,
single,dual,LEAVE,SHALLOW,8888888.0,7,1,12,j,j,0,0,0,0,0,0,6,6,6,,,,,,,,,6,0,6,0,,,,,,,,,,,,,,,,,,,,,,,,,,,,YLGCDWM,73.684706,73.71805410000024,73.71805410000024,73.76804500000026,,,,,,,,,,,,,011943,1,60,en,2024-11-26_15h39.08.606,AB,2023.1.3,59.92660189808788,
single,dual,LEAVE,SHALLOW,8888888.0,7,1,12,j,j,0,0,0,0,0,0,6,6,6,,,,,,,,,7,0,7,0,,,,,,,,,,,,,,,,,,,,,,,,,,,,SPYTCXJ,73.76804500000026,73.80143429999998,73.80143429999998,73.85136659999989,,,,,,,,,,,,,011943,1,60,en,2024-11-26_15h39.08.606,AB,2023.1.3,59.92660189808788,
single,dual,LEAVE,SHALLOW,8888888.0,7,1,12,j,j,0,0,0,0,0,0,6,6,6,,,,,,,,,8,0,8,0,,,,,,,,,,,,,,,,,,,,,,,,,,,,GZXSTNQ,73.85136659999989,73.88477180000018,73.88477180000018,73.93468170000006,,,,,,,,,,,,,011943,1,60,en,2024-11-26_15h39.08.606,AB,2023.1.3,59.92660189808788,
single,dual,LEAVE,SHALLOW,8888888.0,7,1,12,j,j,0,0,0,0,0,0,6,6,6,,,,,,,,,9,0,9,0,,,,,,,,,,,,,,,,,,,,,,,,,,,,LKCDJVH,73.93468170000006,73.9679884000002,73.9679884000002,74.01803460000019,,,,,,,,,,,,,011943,1,60,en,2024-11-26_15h39.08.606,AB,2023.1.3,59.92660189808788,
single,dual,LEAVE,SHALLOW,8888888.0,7,1,12,j,j,0,0,0,0,0,0,6,6,6,,,,,,,,,10,0,10,0,,,,,,,,,,,,,,,,,,,,,,,,,,,,CZPNKDV,74.01803460000019,74.05150289999983,74.05150289999983,74.10167060000003,,,,,,,,,,,,,011943,1,60,en,2024-11-26_15h39.08.606,AB,2023.1.3,59.92660189808788,
single,dual,LEAVE,SHALLOW,8888888.0,7,1,12,j,j,0,0,0,0,0,0,6,6,6,,,,,,,,,11,0,11,0,,,,,,,,,,,,,,,,,,,,,,,,,,,,HYZQFSX,74.10167060000003,74.13467159999982,74.13467159999982,74.1847428000001,,,,,,,,,,,,,011943,1,60,en,2024-11-26_15h39.08.606,AB,2023.1.3,59.92660189808788,
single,dual,LEAVE,SHALLOW,8888888.0,7,1,12,j,j,0,0,0,0,0,0,6,6,6,,,,,,,,,,,,,,,,,,,,,,,,,,,,,,,,,,,,,,,,,,,,,None,0,74.1847428000001,75.16830830000026,75.16830830000026,75.18500730000005,77.16817399999991,77.16817399999991,77.16817399999991,78.1683653,None,0,011943,1,60,en,2024-11-26_15h39.08.606,AB,2023.1.3,59.92660189808788,
single,dual,PLUS,XXDAWNX,5555555.0,7,7,6,f,j,0,0,0,0,0,0,7,7,7,0,0,0,0,,,,,,,,,,,,,,78.1683653,79.16843740000013,79.16843740000013,80.1684779000002,YTRPNDK,80.1684779000002,80.20167070000025,80.20167070000025,80.25168269999995,,,,,,,,,,,,,,,,,,,,,,,,,,,,,,,011943,1,60,en,2024-11-26_15h39.08.606,AB,2023.1.3,59.92660189808788,
single,dual,PLUS,XXDAWNX,5555555.0,7,7,6,f,j,0,0,0,0,0,0,7,7,7,1,0,1,0,,,,,,,,,,,,,,,,,,XKQNPCD,80.25168269999995,80.28507870000021,80.28507870000021,80.33517350000011,,,,,,,,,,,,,,,,,,,,,,,,,,,,,,,011943,1,60,en,2024-11-26_15h39.08.606,AB,2023.1.3,59.92660189808788,
single,dual,PLUS,XXDAWNX,5555555.0,7,7,6,f,j,0,0,0,0,0,0,7,7,7,2,0,2,0,,,,,,,,,,,,,,,,,,TCJGRBM,80.33517350000011,80.36843480000016,80.36843480000016,80.41841310000018,,,,,,,,,,,,,,,,,,,,,,,,,,,,,,,011943,1,60,en,2024-11-26_15h39.08.606,AB,2023.1.3,59.92660189808788,
single,dual,PLUS,XXDAWNX,5555555.0,7,7,6,f,j,0,0,0,0,0,0,7,7,7,3,0,3,0,,,,,,,,,,,,,,,,,,SLGHYPX,80.41841310000018,80.4517337000002,80.4517337000002,80.50183759999982,,,,,,,,,,,,,,,,,,,,,,,,,,,,,,,011943,1,60,en,2024-11-26_15h39.08.606,AB,2023.1.3,59.92660189808788,
single,dual,PLUS,XXDAWNX,5555555.0,7,7,6,f,j,0,0,0,0,0,0,7,7,7,4,0,4,0,,,,,,,,,,,,,,,,,,XDSLCBT,80.50183759999982,80.53519039999992,80.53519039999992,80.58503060000021,,,,,,,,,,,,,,,,,,,,,,,,,,,,,,,011943,1,60,en,2024-11-26_15h39.08.606,AB,2023.1.3,59.92660189808788,
single,dual,PLUS,XXDAWNX,5555555.0,7,7,6,f,j,0,0,0,0,0,0,7,7,7,5,0,5,0,,,,,,,,,,,,,,,,,,SZWMQBT,80.58503060000021,80.61845420000009,80.61845420000009,80.6685708,,,,,,,,,,,,,,,,,,,,,,,,,,,,,,,011943,1,60,en,2024-11-26_15h39.08.606,AB,2023.1.3,59.92660189808788,
single,dual,PLUS,XXDAWNX,5555555.0,7,7,6,f,j,0,0,0,0,0,0,7,7,7,,,,,0,0,0,0,,,,,,,,,,,,,,,,,,,80.6685708,80.70174859999997,80.70174859999997,80.75183349999998,ZCWVJRL,80.75183349999998,80.7850656999999,80.7850656999999,80.8350731999999,,,,,,,,,,,,,,,,,,,,,,011943,1,60,en,2024-11-26_15h39.08.606,AB,2023.1.3,59.92660189808788,
single,dual,PLUS,XXDAWNX,5555555.0,7,7,6,f,j,0,0,0,0,0,0,7,7,7,,,,,1,0,1,0,,,,,,,,,,,,,,,,,,,,,,,YCGTRZK,80.8350731999999,80.86844400000018,80.86844400000018,80.91841879999993,,,,,,,,,,,,,,,,,,,,,,011943,1,60,en,2024-11-26_15h39.08.606,AB,2023.1.3,59.92660189808788,
single,dual,PLUS,XXDAWNX,5555555.0,7,7,6,f,j,0,0,0,0,0,0,7,7,7,,,,,2,0,2,0,,,,,,,,,,,,,,,,,,,,,,,DZCGTKS,80.91841879999993,80.95174829999996,80.95174829999996,81.00176139999985,,,,,,,,,,,,,,,,,,,,,,011943,1,60,en,2024-11-26_15h39.08.606,AB,2023.1.3,59.92660189808788,
single,dual,PLUS,XXDAWNX,5555555.0,7,7,6,f,j,0,0,0,0,0,0,7,7,7,,,,,3,0,3,0,,,,,,,,,,,,,,,,,,,,,,,JGHRCZT,81.00176139999985,81.03509470000017,81.03509470000017,81.08505289999994,,,,,,,,,,,,,,,,,,,,,,011943,1,60,en,2024-11-26_15h39.08.606,AB,2023.1.3,59.92660189808788,
single,dual,PLUS,XXDAWNX,5555555.0,7,7,6,f,j,0,0,0,0,0,0,7,7,7,,,,,4,0,4,0,,,,,,,,,,,,,,,,,,,,,,,CYPLBJH,81.08505289999994,81.11840510000002,81.11840510000002,81.16851330000009,,,,,,,,,,,,,,,,,,,,,,011943,1,60,en,2024-11-26_15h39.08.606,AB,2023.1.3,59.92660189808788,
single,dual,PLUS,XXDAWNX,5555555.0,7,7,6,f,j,0,0,0,0,0,0,7,7,7,,,,,5,0,5,0,,,,,,,,,,,,,,,,,,,,,,,WLPKVSB,81.16851330000009,81.20189500000015,81.20189500000015,81.25174700000025,,,,,,,,,,,,,,,,,,,,,,011943,1,60,en,2024-11-26_15h39.08.606,AB,2023.1.3,59.92660189808788,
single,dual,PLUS,XXDAWNX,5555555.0,7,7,6,f,j,0,0,0,0,0,0,7,7,7,,,,,,,,,0,0,0,0,,,,,,,,,,,,,,,,,,,,,,,,81.25174700000025,81.28520780000008,81.28520780000008,81.3350860999999,WLPKVSB,81.3350860999999,81.3685418,81.3685418,81.41845039999998,,,,,,,,,,,,,011943,1,60,en,2024-11-26_15h39.08.606,AB,2023.1.3,59.92660189808788,
single,dual,PLUS,XXDAWNX,5555555.0,7,7,6,f,j,0,0,0,0,0,0,7,7,7,,,,,,,,,1,0,1,0,,,,,,,,,,,,,,,,,,,,,,,,,,,,QFVCYKJ,81.41845039999998,81.45176410000022,81.45176410000022,81.50177639999993,,,,,,,,,,,,,011943,1,60,en,2024-11-26_15h39.08.606,AB,2023.1.3,59.92660189808788,
single,dual,PLUS,XXDAWNX,5555555.0,7,7,6,f,j,0,0,0,0,0,0,7,7,7,,,,,,,,,2,0,2,0,,,,,,,,,,,,,,,,,,,,,,,,,,,,CDMRVBX,81.50177639999993,81.5353912999999,81.5353912999999,81.58508870000014,,,,,,,,,,,,,011943,1,60,en,2024-11-26_15h39.08.606,AB,2023.1.3,59.92660189808788,
single,dual,PLUS,XXDAWNX,5555555.0,7,7,6,f,j,0,0,0,0,0,0,7,7,7,,,,,,,,,3,0,3,0,,,,,,,,,,,,,,,,,,,,,,,,,,,,WDVYPQT,81.58508870000014,81.61841779999986,81.61841779999986,81.66855650000025,,,,,,,,,,,,,011943,1,60,en,2024-11-26_15h39.08.606,AB,2023.1.3,59.92660189808788,
single,dual,PLUS,XXDAWNX,5555555.0,7,7,6,f,j,0,0,0,0,0,0,7,7,7,,,,,,,,,4,0,4,0,,,,,,,,,,,,,,,,,,,,,,,,,,,,WPRGZXV,81.66855650000025,81.7019949999999,81.7019949999999,81.75193110000009,,,,,,,,,,,,,011943,1,60,en,2024-11-26_15h39.08.606,AB,2023.1.3,59.92660189808788,
single,dual,PLUS,XXDAWNX,5555555.0,7,7,6,f,j,0,0,0,0,0,0,7,7,7,,,,,,,,,5,0,5,0,,,,,,,,,,,,,,,,,,,,,,,,,,,,WNLZFTR,81.75193110000009,81.78518799999983,81.78518799999983,81.8353588,,,,,,,,,,,,,011943,1,60,en,2024-11-26_15h39.08.606,AB,2023.1.3,59.92660189808788,
single,dual,PLUS,XXDAWNX,5555555.0,7,7,6,f,j,0,0,0,0,0,0,7,7,7,,,,,,,,,,,,,,,,,,,,,,,,,,,,,,,,,,,,,,,,,,,,,None,0,81.8353588,82.81849439999996,82.81849439999996,82.83526089999987,84.81889520000004,84.81889520000004,84.81889520000004,85.81868900000018,None,0,011943,1,60,en,2024-11-26_15h39.08.606,AB,2023.1.3,59.92660189808788,
single,dual,MINUTE,XOLDERX,5555555.0,10,1,9,f,j,0,0,0,0,0,0,8,8,8,0,0,0,0,,,,,,,,,,,,,,85.81868900000018,86.8020961000002,86.81873989999985,87.80214169999999,XZKJSNR,87.80214169999999,87.83551239999997,87.83551239999997,87.88545710000017,,,,,,,,,,,,,,,,,,,,,,,,,,,,,,,011943,1,60,en,2024-11-26_15h39.08.606,AB,2023.1.3,59.92660189808788,
single,dual,MINUTE,XOLDERX,5555555.0,10,1,9,f,j,0,0,0,0,0,0,8,8,8,1,0,1,0,,,,,,,,,,,,,,,,,,NKTWZFR,87.88545710000017,87.91876899999988,87.91876899999988,87.96881799999983,,,,,,,,,,,,,,,,,,,,,,,,,,,,,,,011943,1,60,en,2024-11-26_15h39.08.606,AB,2023.1.3,59.92660189808788,
single,dual,MINUTE,XOLDERX,5555555.0,10,1,9,f,j,0,0,0,0,0,0,8,8,8,2,0,2,0,,,,,,,,,,,,,,,,,,YKLPQTF,87.96881799999983,88.0046981999999,88.0046981999999,88.0521134999999,,,,,,,,,,,,,,,,,,,,,,,,,,,,,,,011943,1,60,en,2024-11-26_15h39.08.606,AB,2023.1.3,59.92660189808788,
single,dual,MINUTE,XOLDERX,5555555.0,10,1,9,f,j,0,0,0,0,0,0,8,8,8,3,0,3,0,,,,,,,,,,,,,,,,,,ZDPGRNB,88.0521134999999,88.08551780000016,88.08551780000016,88.13550440000017,,,,,,,,,,,,,,,,,,,,,,,,,,,,,,,011943,1,60,en,2024-11-26_15h39.08.606,AB,2023.1.3,59.92660189808788,
single,dual,MINUTE,XOLDERX,5555555.0,10,1,9,f,j,0,0,0,0,0,0,8,8,8,4,0,4,0,,,,,,,,,,,,,,,,,,BPMHJXR,88.13550440000017,88.16893230000005,88.16893230000005,88.21889869999995,,,,,,,,,,,,,,,,,,,,,,,,,,,,,,,011943,1,60,en,2024-11-26_15h39.08.606,AB,2023.1.3,59.92660189808788,
single,dual,MINUTE,XOLDERX,5555555.0,10,1,9,f,j,0,0,0,0,0,0,8,8,8,5,0,5,0,,,,,,,,,,,,,,,,,,NSFXBVP,88.21889869999995,88.25468619999992,88.25468619999992,88.30218169999989,,,,,,,,,,,,,,,,,,,,,,,,,,,,,,,011943,1,60,en,2024-11-26_15h39.08.606,AB,2023.1.3,59.92660189808788,
single,dual,MINUTE,XOLDERX,5555555.0,10,1,9,f,j,0,0,0,0,0,0,8,8,8,6,0,6,0,,,,,,,,,,,,,,,,,,BVSHGFT,88.30218169999989,88.33558110000013,88.33558110000013,88.38549839999996,,,,,,,,,,,,,,,,,,,,,,,,,,,,,,,011943,1,60,en,2024-11-26_15h39.08.606,AB,2023.1.3,59.92660189808788,
single,dual,MINUTE,XOLDERX,5555555.0,10,1,9,f,j,0,0,0,0,0,0,8,8,8,7,0,7,0,,,,,,,,,,,,,,,,,,HLWZCDV,88.38549839999996,88.42022540000016,88.42022540000016,88.52484730000015,,,,,,,,,,,,,,,,,,,,,,,,,,,,,,,011943,1,60,en,2024-11-26_15h39.08.606,AB,2023.1.3,59.92660189808788,
single,dual,MINUTE,XOLDERX,5555555.0,10,1,9,f,j,0,0,0,0,0,0,8,8,8,8,0,8,0,,,,,,,,,,,,,,,,,,KBQVJMD,88.52484730000015,88.55228780000016,88.55228780000016,88.60223670000005,,,,,,,,,,,,,,,,,,,,,,,,,,,,,,,011943,1,60,en,2024-11-26_15h39.08.606,AB,2023.1.3,59.92660189808788,
single,dual,MINUTE,XOLDERX,5555555.0,10,1,9,f,j,0,0,0,0,0,0,8,8,8,,,,,0,0,0,0,,,,,,,,,,,,,,,,,,,88.60223670000005,88.63552789999994,88.63552789999994,88.68548559999999,,,,,,,,,,,,,,,,,,,,,,,,,,,011943,1,60,en,2024-11-26_15h39.08.606,AB,2023.1.3,59.92660189808788,
single,dual,MINUTE,XOLDERX,5555555.0,10,1,9,f,j,0,0,0,0,0,0,8,8,8,,,,,,,,,0,0,0,0,,,,,,,,,,,,,,,,,,,,,,,,88.68548559999999,88.71887650000008,88.71887650000008,88.7688321999999,LYNCJBQ,88.7688321999999,88.80220529999997,88.80220529999997,88.85228080000024,,,,,,,,,,,,,011943,1,60,en,2024-11-26_15h39.08.606,AB,2023.1.3,59.92660189808788,
single,dual,MINUTE,XOLDERX,5555555.0,10,1,9,f,j,0,0,0,0,0,0,8,8,8,,,,,,,,,1,0,1,0,,,,,,,,,,,,,,,,,,,,,,,,,,,,LJHGZPD,88.85228080000024,88.88557219999984,88.88557219999984,88.93559830000004,,,,,,,,,,,,,011943,1,60,en,2024-11-26_15h39.08.606,AB,2023.1.3,59.92660189808788,
single,dual,MINUTE,XOLDERX,5555555.0,10,1,9,f,j,0,0,0,0,0,0,8,8,8,,,,,,,,,2,0,2,0,,,,,,,,,,,,,,,,,,,,,,,,,,,,WFRSTXZ,88.93559830000004,88.96886810000024,88.96886810000024,89.01891430000023,,,,,,,,,,,,,011943,1,60,en,2024-11-26_15h39.08.606,AB,2023.1.3,59.92660189808788,
single,dual,MINUTE,XOLDERX,5555555.0,10,1,9,f,j,0,0,0,0,0,0,8,8,8,,,,,,,,,3,0,3,0,,,,,,,,,,,,,,,,,,,,,,,,,,,,FSGHWDX,89.01891430000023,89.0522092000001,89.0522092000001,89.10220870000012,,,,,,,,,,,,,011943,1,60,en,2024-11-26_15h39.08.606,AB,2023.1.3,59.92660189808788,
single,dual,MINUTE,XOLDERX,5555555.0,10,1,9,f,j,0,0,0,0,0,0,8,8,8,,,,,,,,,4,0,4,0,,,,,,,,,,,,,,,,,,,,,,,,,,,,FRZNBYX,89.10220870000012,89.13553830000001,89.13553830000001,89.18559940000023,,,,,,,,,,,,,011943,1,60,en,2024-11-26_15h39.08.606,AB,2023.1.3,59.92660189808788,
single,dual,MINUTE,XOLDERX,5555555.0,10,1,9,f,j,0,0,0,0,0,0,8,8,8,,,,,,,,,5,0,5,0,,,,,,,,,,,,,,,,,,,,,,,,,,,,LSDFPWB,89.18559940000023,89.21888219999983,89.21888219999983,89.268912,,,,,,,,,,,,,011943,1,60,en,2024-11-26_15h39.08.606,AB,2023.1.3,59.92660189808788,
single,dual,MINUTE,XOLDERX,5555555.0,10,1,9,f,j,0,0,0,0,0,0,8,8,8,,,,,,,,,6,0,6,0,,,,,,,,,,,,,,,,,,,,,,,,,,,,FJRLYCX,89.268912,89.30222020000019,89.30222020000019,89.35219020000022,,,,,,,,,,,,,011943,1,60,en,2024-11-26_15h39.08.606,AB,2023.1.3,59.92660189808788,
single,dual,MINUTE,XOLDERX,5555555.0,10,1,9,f,j,0,0,0,0,0,0,8,8,8,,,,,,,,,7,0,7,0,,,,,,,,,,,,,,,,,,,,,,,,,,,,SDTGXRZ,89.35219020000022,89.38824729999988,89.38824729999988,89.43599459999996,,,,,,,,,,,,,011943,1,60,en,2024-11-26_15h39.08.606,AB,2023.1.3,59.92660189808788,
single,dual,MINUTE,XOLDERX,5555555.0,10,1,9,f,j,0,0,0,0,0,0,8,8,8,,,,,,,,,8,0,8,0,,,,,,,,,,,,,,,,,,,,,,,,,,,,RFKGNSV,89.43599459999996,89.47142369999983,89.47142369999983,89.51891879999994,,,,,,,,,,,,,011943,1,60,en,2024-11-26_15h39.08.606,AB,2023.1.3,59.92660189808788,
single,dual,MINUTE,XOLDERX,5555555.0,10,1,9,f,j,0,0,0,0,0,0,8,8,8,,,,,,,,,,,,,,,,,,,,,,,,,,,,,,,,,,,,,,,,,,,,,None,0,89.51891879999994,90.51892029999999,90.51892029999999,90.51892029999999,92.51928670000007,92.51928670000007,92.51928670000007,93.51911310000014,None,0,011943,1,60,en,2024-11-26_15h39.08.606,AB,2023.1.3,59.92660189808788,
single,dual,REPAIR,XFALSEX,4444444.0,10,1,9,j,j,0,0,0,0,0,0,9,9,9,0,0,0,0,,,,,,,,,,,,,,93.51911310000014,94.51932170000009,94.51932170000009,,BWDNVQZ,95.51922800000011,95.55258360000016,95.55258360000016,95.60256059999983,,,,,,,,,,,,,,,,,,,,,,,,,,,,,,,011943,1,60,en,2024-11-26_15h39.08.606,AB,2023.1.3,59.92660189808788,
single,dual,REPAIR,XFALSEX,4444444.0,10,1,9,j,j,0,0,0,0,0,0,9,9,9,1,0,1,0,,,,,,,,,,,,,,,,,,YKRCWQS,95.60256059999983,95.63600050000014,95.63600050000014,95.68587290000005,,,,,,,,,,,,,,,,,,,,,,,,,,,,,,,011943,1,60,en,2024-11-26_15h39.08.606,AB,2023.1.3,59.92660189808788,
single,dual,REPAIR,XFALSEX,4444444.0,10,1,9,j,j,0,0,0,0,0,0,9,9,9,2,0,2,0,,,,,,,,,,,,,,,,,,FKSBDGY,95.68587290000005,95.71919669999988,95.71919669999988,95.7692520999999,,,,,,,,,,,,,,,,,,,,,,,,,,,,,,,011943,1,60,en,2024-11-26_15h39.08.606,AB,2023.1.3,59.92660189808788,
single,dual,REPAIR,XFALSEX,4444444.0,10,1,9,j,j,0,0,0,0,0,0,9,9,9,3,0,3,0,,,,,,,,,,,,,,,,,,HKFBWTD,95.7692520999999,95.80280040000025,95.80280040000025,95.85285269999986,,,,,,,,,,,,,,,,,,,,,,,,,,,,,,,011943,1,60,en,2024-11-26_15h39.08.606,AB,2023.1.3,59.92660189808788,
single,dual,REPAIR,XFALSEX,4444444.0,10,1,9,j,j,0,0,0,0,0,0,9,9,9,4,0,4,0,,,,,,,,,,,,,,,,,,QFSTRZC,95.85285269999986,95.88588740000023,95.88588740000023,95.93596860000025,,,,,,,,,,,,,,,,,,,,,,,,,,,,,,,011943,1,60,en,2024-11-26_15h39.08.606,AB,2023.1.3,59.92660189808788,
single,dual,REPAIR,XFALSEX,4444444.0,10,1,9,j,j,0,0,0,0,0,0,9,9,9,5,0,5,0,,,,,,,,,,,,,,,,,,KXSMNBL,95.93596860000025,95.96924339999987,95.96924339999987,96.01926349999985,,,,,,,,,,,,,,,,,,,,,,,,,,,,,,,011943,1,60,en,2024-11-26_15h39.08.606,AB,2023.1.3,59.92660189808788,
single,dual,REPAIR,XFALSEX,4444444.0,10,1,9,j,j,0,0,0,0,0,0,9,9,9,6,0,6,0,,,,,,,,,,,,,,,,,,HJYWRSD,96.01926349999985,96.05269709999993,96.05269709999993,96.10266050000018,,,,,,,,,,,,,,,,,,,,,,,,,,,,,,,011943,1,60,en,2024-11-26_15h39.08.606,AB,2023.1.3,59.92660189808788,
single,dual,REPAIR,XFALSEX,4444444.0,10,1,9,j,j,0,0,0,0,0,0,9,9,9,7,0,7,0,,,,,,,,,,,,,,,,,,TWMRQNZ,96.10266050000018,96.13841679999996,96.13841679999996,96.18604790000018,,,,,,,,,,,,,,,,,,,,,,,,,,,,,,,011943,1,60,en,2024-11-26_15h39.08.606,AB,2023.1.3,59.92660189808788,
single,dual,REPAIR,XFALSEX,4444444.0,10,1,9,j,j,0,0,0,0,0,0,9,9,9,8,0,8,0,,,,,,,,,,,,,,,,,,ZVTJKNP,96.18604790000018,96.2192712000001,96.2192712000001,96.26929950000022,,,,,,,,,,,,,,,,,,,,,,,,,,,,,,,011943,1,60,en,2024-11-26_15h39.08.606,AB,2023.1.3,59.92660189808788,
single,dual,REPAIR,XFALSEX,4444444.0,10,1,9,j,j,0,0,0,0,0,0,9,9,9,,,,,0,0,0,0,,,,,,,,,,,,,,,,,,,96.26929950000022,96.3025720999999,96.3025720999999,96.35266430000001,,,,,,,,,,,,,,,,,,,,,,,,,,,011943,1,60,en,2024-11-26_15h39.08.606,AB,2023.1.3,59.92660189808788,
single,dual,REPAIR,XFALSEX,4444444.0,10,1,9,j,j,0,0,0,0,0,0,9,9,9,,,,,,,,,0,0,0,0,,,,,,,,,,,,,,,,,,,,,,,,96.35266430000001,96.38622750000013,96.38622750000013,96.43592459999991,TFNCLSY,96.43592459999991,96.4693043000002,96.4693043000002,96.51927250000017,,,,,,,,,,,,,011943,1,60,en,2024-11-26_15h39.08.606,AB,2023.1.3,59.92660189808788,
single,dual,REPAIR,XFALSEX,4444444.0,10,1,9,j,j,0,0,0,0,0,0,9,9,9,,,,,,,,,1,0,1,0,,,,,,,,,,,,,,,,,,,,,,,,,,,,XVMPBZK,96.51927250000017,96.55265150000014,96.55265150000014,96.60263450000002,,,,,,,,,,,,,011943,1,60,en,2024-11-26_15h39.08.606,AB,2023.1.3,59.92660189808788,
single,dual,REPAIR,XFALSEX,4444444.0,10,1,9,j,j,0,0,0,0,0,0,9,9,9,,,,,,,,,2,0,2,0,,,,,,,,,,,,,,,,,,,,,,,,,,,,KQJBHZR,96.60263450000002,96.63595560000022,96.63595560000022,96.68602190000001,,,,,,,,,,,,,011943,1,60,en,2024-11-26_15h39.08.606,AB,2023.1.3,59.92660189808788,
single,dual,REPAIR,XFALSEX,4444444.0,10,1,9,j,j,0,0,0,0,0,0,9,9,9,,,,,,,,,3,0,3,0,,,,,,,,,,,,,,,,,,,,,,,,,,,,DNHWJRB,96.68602190000001,96.71929450000016,96.71929450000016,96.76929310000014,,,,,,,,,,,,,011943,1,60,en,2024-11-26_15h39.08.606,AB,2023.1.3,59.92660189808788,
single,dual,REPAIR,XFALSEX,4444444.0,10,1,9,j,j,0,0,0,0,0,0,9,9,9,,,,,,,,,4,0,4,0,,,,,,,,,,,,,,,,,,,,,,,,,,,,CLHSZYG,96.76929310000014,96.80263569999988,96.80263569999988,96.85272140000006,,,,,,,,,,,,,011943,1,60,en,2024-11-26_15h39.08.606,AB,2023.1.3,59.92660189808788,
single,dual,REPAIR,XFALSEX,4444444.0,10,1,9,j,j,0,0,0,0,0,0,9,9,9,,,,,,,,,5,0,5,0,,,,,,,,,,,,,,,,,,,,,,,,,,,,MSKNYCJ,96.85272140000006,96.88599430000022,96.88599430000022,96.93608730000005,,,,,,,,,,,,,011943,1,60,en,2024-11-26_15h39.08.606,AB,2023.1.3,59.92660189808788,
single,dual,REPAIR,XFALSEX,4444444.0,10,1,9,j,j,0,0,0,0,0,0,9,9,9,,,,,,,,,6,0,6,0,,,,,,,,,,,,,,,,,,,,,,,,,,,,QBRSKLT,96.93608730000005,96.96930460000021,96.96930460000021,97.01931310000009,,,,,,,,,,,,,011943,1,60,en,2024-11-26_15h39.08.606,AB,2023.1.3,59.92660189808788,
single,dual,REPAIR,XFALSEX,4444444.0,10,1,9,j,j,0,0,0,0,0,0,9,9,9,,,,,,,,,7,0,7,0,,,,,,,,,,,,,,,,,,,,,,,,,,,,LSVWYTH,97.01931310000009,97.05264840000018,97.05264840000018,97.10264940000025,,,,,,,,,,,,,011943,1,60,en,2024-11-26_15h39.08.606,AB,2023.1.3,59.92660189808788,
single,dual,REPAIR,XFALSEX,4444444.0,10,1,9,j,j,0,0,0,0,0,0,9,9,9,,,,,,,,,8,0,8,0,,,,,,,,,,,,,,,,,,,,,,,,,,,,STPJMHX,97.10264940000025,97.13607910000019,97.13607910000019,97.18845370000008,,,,,,,,,,,,,011943,1,60,en,2024-11-26_15h39.08.606,AB,2023.1.3,59.92660189808788,
single,dual,REPAIR,XFALSEX,4444444.0,10,1,9,j,j,0,0,0,0,0,0,9,9,9,,,,,,,,,,,,,,,,,,,,,,,,,,,,,,,,,,,,,,,,,,,,,None,0,97.18845370000008,98.1693737999999,98.1693737999999,98.20267610000019,100.16954530000021,100.16954530000021,100.16954530000021,101.16952930000025,None,0,011943,1,60,en,2024-11-26_15h39.08.606,AB,2023.1.3,59.92660189808788,
single,dual,STEP,XSTAIRX,8888888.0,10,3,7,j,f,1,0,0,0,0,0,10,10,10,0,0,0,0,,,,,,,,,,,,,,101.16952930000025,102.16961889999993,102.16961889999993,103.1696237000001,LNSYBMZ,103.1696237000001,103.20301180000024,103.20301180000024,103.25299519999999,,,,,,,,,,,,,,,,,,,,,,,,,,,,,,,011943,1,60,en,2024-11-26_15h39.08.606,AB,2023.1.3,59.92660189808788,
single,dual,STEP,XSTAIRX,8888888.0,10,3,7,j,f,1,0,0,0,0,0,10,10,10,1,0,1,0,,,,,,,,,,,,,,,,,,JCLRGNX,103.25299519999999,103.28657299999986,103.28657299999986,103.33633770000006,,,,,,,,,,,,,,,,,,,,,,,,,,,,,,,011943,1,60,en,2024-11-26_15h39.08.606,AB,2023.1.3,59.92660189808788,
single,dual,STEP,XSTAIRX,8888888.0,10,3,7,j,f,1,0,0,0,0,0,10,10,10,2,0,2,0,,,,,,,,,,,,,,,,,,JQDFXNT,103.33633770000006,103.36963730000025,103.36963730000025,103.41964120000011,,,,,,,,,,,,,,,,,,,,,,,,,,,,,,,011943,1,60,en,2024-11-26_15h39.08.606,AB,2023.1.3,59.92660189808788,
single,dual,STEP,XSTAIRX,8888888.0,10,3,7,j,f,1,0,0,0,0,0,10,10,10,3,0,3,0,,,,,,,,,,,,,,,,,,FGTPKDX,103.41964120000011,103.4529665,103.4529665,103.50301679999984,,,,,,,,,,,,,,,,,,,,,,,,,,,,,,,011943,1,60,en,2024-11-26_15h39.08.606,AB,2023.1.3,59.92660189808788,
single,dual,STEP,XSTAIRX,8888888.0,10,3,7,j,f,1,0,0,0,0,0,10,10,10,4,0,4,0,,,,,,,,,,,,,,,,,,NKRWZVF,103.50301679999984,103.53634349999993,103.53634349999993,103.58639649999986,,,,,,,,,,,,,,,,,,,,,,,,,,,,,,,011943,1,60,en,2024-11-26_15h39.08.606,AB,2023.1.3,59.92660189808788,
single,dual,STEP,XSTAIRX,8888888.0,10,3,7,j,f,1,0,0,0,0,0,10,10,10,5,0,5,0,,,,,,,,,,,,,,,,,,NMHWYKJ,103.58639649999986,103.61967409999988,103.61967409999988,103.6696723,,,,,,,,,,,,,,,,,,,,,,,,,,,,,,,011943,1,60,en,2024-11-26_15h39.08.606,AB,2023.1.3,59.92660189808788,
single,dual,STEP,XSTAIRX,8888888.0,10,3,7,j,f,1,0,0,0,0,0,10,10,10,6,0,6,0,,,,,,,,,,,,,,,,,,JDPLFNY,103.6696723,103.70555460000014,103.70555460000014,103.75308489999998,,,,,,,,,,,,,,,,,,,,,,,,,,,,,,,011943,1,60,en,2024-11-26_15h39.08.606,AB,2023.1.3,59.92660189808788,
single,dual,STEP,XSTAIRX,8888888.0,10,3,7,j,f,1,0,0,0,0,0,10,10,10,7,0,7,0,,,,,,,,,,,,,,,,,,NZQTXBH,103.75308489999998,103.78635380000014,103.78635380000014,103.83640150000019,,,,,,,,,,,,,,,,,,,,,,,,,,,,,,,011943,1,60,en,2024-11-26_15h39.08.606,AB,2023.1.3,59.92660189808788,
single,dual,STEP,XSTAIRX,8888888.0,10,3,7,j,f,1,0,0,0,0,0,10,10,10,8,0,8,0,,,,,,,,,,,,,,,,,,HMQCVLJ,103.83640150000019,103.86971260000018,103.86971260000018,103.91977690000022,,,,,,,,,,,,,,,,,,,,,,,,,,,,,,,011943,1,60,en,2024-11-26_15h39.08.606,AB,2023.1.3,59.92660189808788,
single,dual,STEP,XSTAIRX,8888888.0,10,3,7,j,f,1,0,0,0,0,0,10,10,10,,,,,0,0,0,0,,,,,,,,,,,,,,,,,,,103.91977690000022,103.95341989999997,103.95341989999997,104.00302740000006,YQCBMTH,104.00302740000006,104.03635910000003,104.03635910000003,104.08640749999995,,,,,,,,,,,,,,,,,,,,,,011943,1,60,en,2024-11-26_15h39.08.606,AB,2023.1.3,59.92660189808788,
single,dual,STEP,XSTAIRX,8888888.0,10,3,7,j,f,1,0,0,0,0,0,10,10,10,,,,,1,0,1,0,,,,,,,,,,,,,,,,,,,,,,,JVNPZCR,104.08640749999995,104.11992800000007,104.11992800000007,104.16972750000014,,,,,,,,,,,,,,,,,,,,,,011943,1,60,en,2024-11-26_15h39.08.606,AB,2023.1.3,59.92660189808788,
single,dual,STEP,XSTAIRX,8888888.0,10,3,7,j,f,1,0,0,0,0,0,10,10,10,,,,,,,,,0,0,0,0,,,,,,,,,,,,,,,,,,,,,,,,104.16972750000014,104.20309099999986,104.20309099999986,104.25301960000024,JVNPZCR,104.25301960000024,104.2863981999999,104.2863981999999,104.33673409999983,,,,,,,,,,,,,011943,1,60,en,2024-11-26_15h39.08.606,AB,2023.1.3,59.92660189808788,
single,dual,STEP,XSTAIRX,8888888.0,10,3,7,j,f,1,0,0,0,0,0,10,10,10,,,,,,,,,1,0,1,0,,,,,,,,,,,,,,,,,,,,,,,,,,,,RDMNCSZ,104.33673409999983,104.36975510000002,104.36975510000002,104.41971019999983,,,,,,,,,,,,,011943,1,60,en,2024-11-26_15h39.08.606,AB,2023.1.3,59.92660189808788,
single,dual,STEP,XSTAIRX,8888888.0,10,3,7,j,f,1,0,0,0,0,0,10,10,10,,,,,,,,,2,0,2,0,,,,,,,,,,,,,,,,,,,,,,,,,,,,FJYBTCH,104.41971019999983,104.45303520000016,104.45303520000016,104.50311710000005,,,,,,,,,,,,,011943,1,60,en,2024-11-26_15h39.08.606,AB,2023.1.3,59.92660189808788,
single,dual,STEP,XSTAIRX,8888888.0,10,3,7,j,f,1,0,0,0,0,0,10,10,10,,,,,,,,,3,0,3,0,,,,,,,,,,,,,,,,,,,,,,,,,,,,KCGVTPR,104.50311710000005,104.53640309999992,104.53640309999992,104.58640500000001,,,,,,,,,,,,,011943,1,60,en,2024-11-26_15h39.08.606,AB,2023.1.3,59.92660189808788,
single,dual,STEP,XSTAIRX,8888888.0,10,3,7,j,f,1,0,0,0,0,0,10,10,10,,,,,,,,,4,0,4,0,,,,,,,,,,,,,,,,,,,,,,,,,,,,TQFWLYB,104.58640500000001,104.61973020000005,104.61973020000005,104.66977189999989,,,,,,,,,,,,,011943,1,60,en,2024-11-26_15h39.08.606,AB,2023.1.3,59.92660189808788,
single,dual,STEP,XSTAIRX,8888888.0,10,3,7,j,f,1,0,0,0,0,0,10,10,10,,,,,,,,,5,0,5,0,,,,,,,,,,,,,,,,,,,,,,,,,,,,YTPZQDK,104.66977189999989,104.70307309999998,104.70307309999998,104.7532583000002,,,,,,,,,,,,,011943,1,60,en,2024-11-26_15h39.08.606,AB,2023.1.3,59.92660189808788,
single,dual,STEP,XSTAIRX,8888888.0,10,3,7,j,f,1,0,0,0,0,0,10,10,10,,,,,,,,,6,0,6,0,,,,,,,,,,,,,,,,,,,,,,,,,,,,BPXVTGL,104.7532583000002,104.78638570000021,104.78638570000021,104.83644490000006,,,,,,,,,,,,,011943,1,60,en,2024-11-26_15h39.08.606,AB,2023.1.3,59.92660189808788,
single,dual,STEP,XSTAIRX,8888888.0,10,3,7,j,f,1,0,0,0,0,0,10,10,10,,,,,,,,,,,,,,,,,,,,,,,,,,,,,,,,,,,,,,,,,,,,,None,0,104.83644490000006,105.8198139000001,105.8198139000001,105.83645590000015,107.81997730000012,107.81997730000012,107.81997730000012,108.81997499999989,None,0,011943,1,60,en,2024-11-26_15h39.08.606,AB,2023.1.3,59.92660189808788,
single,dual,BUG,XCHOIRX,7777777.0,10,7,3,f,j,0,0,0,0,0,0,11,11,11,0,0,0,0,,,,,,,,,,,,,,108.81997499999989,109.80361429999994,109.82019420000006,110.8033948000002,BFKRVNZ,110.82008360000009,110.85351859999992,110.83675919999996,110.88676050000004,,,,,,,,,,,,,,,,,,,,,,,,,,,,,,,011943,1,60,en,2024-11-26_15h39.08.606,AB,2023.1.3,59.92660189808788,
single,dual,BUG,XCHOIRX,7777777.0,10,7,3,f,j,0,0,0,0,0,0,11,11,11,1,0,1,0,,,,,,,,,,,,,,,,,,FXVDTNP,110.88676050000004,110.92009469999994,110.92009469999994,110.97008529999994,,,,,,,,,,,,,,,,,,,,,,,,,,,,,,,011943,1,60,en,2024-11-26_15h39.08.606,AB,2023.1.3,59.92660189808788,
single,dual,BUG,XCHOIRX,7777777.0,10,7,3,f,j,0,0,0,0,0,0,11,11,11,2,0,2,0,,,,,,,,,,,,,,,,,,FDCWPRN,110.97008529999994,111.00348900000017,111.00348900000017,111.05594740000015,,,,,,,,,,,,,,,,,,,,,,,,,,,,,,,011943,1,60,en,2024-11-26_15h39.08.606,AB,2023.1.3,59.92660189808788,
single,dual,BUG,XCHOIRX,7777777.0,10,7,3,f,j,0,0,0,0,0,0,11,11,11,3,0,3,0,,,,,,,,,,,,,,,,,,WRCHQDP,111.05594740000015,111.08692010000004,111.08692010000004,111.13683549999996,,,,,,,,,,,,,,,,,,,,,,,,,,,,,,,011943,1,60,en,2024-11-26_15h39.08.606,AB,2023.1.3,59.92660189808788,
single,dual,BUG,XCHOIRX,7777777.0,10,7,3,f,j,0,0,0,0,0,0,11,11,11,4,0,4,0,,,,,,,,,,,,,,,,,,FHTWPJD,111.13683549999996,111.17010710000022,111.17010710000022,111.22011980000025,,,,,,,,,,,,,,,,,,,,,,,,,,,,,,,011943,1,60,en,2024-11-26_15h39.08.606,AB,2023.1.3,59.92660189808788,
single,dual,BUG,XCHOIRX,7777777.0,10,7,3,f,j,0,0,0,0,0,0,11,11,11,5,0,5,0,,,,,,,,,,,,,,,,,,GWHTQNJ,111.22011980000025,111.25351690000025,111.25351690000025,111.30344330000025,,,,,,,,,,,,,,,,,,,,,,,,,,,,,,,011943,1,60,en,2024-11-26_15h39.08.606,AB,2023.1.3,59.92660189808788,
single,dual,BUG,XCHOIRX,7777777.0,10,7,3,f,j,0,0,0,0,0,0,11,11,11,6,0,6,0,,,,,,,,,,,,,,,,,,PRBKDMQ,111.30344330000025,111.3369502999999,111.3369502999999,111.38678590000018,,,,,,,,,,,,,,,,,,,,,,,,,,,,,,,011943,1,60,en,2024-11-26_15h39.08.606,AB,2023.1.3,59.92660189808788,
single,dual,BUG,XCHOIRX,7777777.0,10,7,3,f,j,0,0,0,0,0,0,11,11,11,7,0,7,0,,,,,,,,,,,,,,,,,,PYRLNFX,111.38678590000018,111.42010429999982,111.42010429999982,111.47012309999991,,,,,,,,,,,,,,,,,,,,,,,,,,,,,,,011943,1,60,en,2024-11-26_15h39.08.606,AB,2023.1.3,59.92660189808788,
single,dual,BUG,XCHOIRX,7777777.0,10,7,3,f,j,0,0,0,0,0,0,11,11,11,8,0,8,0,,,,,,,,,,,,,,,,,,KPYGTNC,111.47012309999991,111.50341370000024,111.50341370000024,111.55346610000015,,,,,,,,,,,,,,,,,,,,,,,,,,,,,,,011943,1,60,en,2024-11-26_15h39.08.606,AB,2023.1.3,59.92660189808788,
single,dual,BUG,XCHOIRX,7777777.0,10,7,3,f,j,0,0,0,0,0,0,11,11,11,,,,,0,0,0,0,,,,,,,,,,,,,,,,,,,111.55346610000015,111.58680860000004,111.58680860000004,111.63678400000026,GFKHVBP,111.63678400000026,111.67014680000011,111.67014680000011,111.72014900000022,,,,,,,,,,,,,,,,,,,,,,011943,1,60,en,2024-11-26_15h39.08.606,AB,2023.1.3,59.92660189808788,
,,,,,,,,,,,,,,,,,,,,,,,,,,,,,,,,,,,,,,,,,,,,,,,,,GZRKWYP,111.72014900000022,,,,,,,,,,,,,,,,,,,,,,,,,,,,,,,,,
