task1,task2,T0,T2,T1,lagT0,lagT1,lagT2,responseT1,responseT2,related,dist,block.thisRepN,block.thisTrialN,block.thisN,block.thisIndex,trial.thisRepN,trial.thisTrialN,trial.thisN,trial.thisIndex,trials_T0_context.thisRepN,trials_T0_context.thisTrialN,trials_T0_context.thisN,trials_T0_context.thisIndex,trials_T1.thisRepN,trials_T1.thisTrialN,trials_T1.thisN,trials_T1.thisIndex,trials_T2.thisRepN,trials_T2.thisTrialN,trials_T2.thisN,trials_T2.thisIndex,thisRow.t,notes,instructions.started,text_instructions.started,key_resp.started,instructions.stopped,key_resp.keys,key_resp.rt,key_resp.duration,settings.started,settings.stopped,T0_context.started,context_word.started,blankContext.started,context_word.stopped,blankContext.stopped,T0_context.stopped,distractors_T0_T2.started,text_distractors_2.started,distractors_T0_T2.stopped,T1_number.started,text_T1.started,T1_number.stopped,distractors_T1.started,text_distractors.started,distractors_T1.stopped,T2_probe.started,text_T2.started,T2_probe.stopped,Ask_T1.started,Ask_T1.stopped,key_resp_T1.keys,key_resp_T1.corr,Ask_T2.started,blankT2_1.started,text_T2ask.started,key_resp_T2.started,blankT2_1.stopped,text_T2ask.stopped,blankT2_2.started,key_resp_T2.stopped,blankT2_2.stopped,Ask_T2.stopped,key_resp_T2.keys,key_resp_T2.corr,participant,order [1: single-dual or 2: dual-single],date,expName,psychopyVersion,frameRate,expStart,
,,,,,,,,,,,,,,,,,,,,,,,,,,,,,,,,,,0.004625799949280918,0.01726959994994104,0.01726959994994104,67.37086279992945,space,67.3006016999716,None,,,,,,,,,,,,,,,,,,,,,,,,,,,,,,,,,,,,,199487,1,2024-10-16_09h55.56.901,AB,2024.1.1,None,2024-10-16 09h56.08.131116 +0200,
single,dual,ANGRY,XXYELLX,1111111.0,7.0,7.0,6.0,j,j,0.0,ZJTSHFP,0,0,0,0,0,0,0,0,,,,,0,0,0,3,,,,,70.01594379998278,,,,,,,,,67.37666029995307,67.37699879996944,67.5146244999487,67.5274903998943,68.37730989989359,68.52747879992239,69.4212907999754,69.36164689995348,69.7943911999464,69.81073429994285,69.87747189996298,69.87752579990774,69.89415469998494,69.96151399996597,70.00727219996043,70.01594379998278,70.04407649999484,,,,,,,,,,,,,,,,,,,,199487,1,2024-10-16_09h55.56.901,AB,2024.1.1,None,2024-10-16 09h56.08.131116 +0200,
single,dual,ANGRY,XXYELLX,1111111.0,7.0,7.0,6.0,j,j,0.0,ZTFYDXH,0,0,0,0,0,0,0,0,,,,,0,1,1,0,,,,,70.06067189993337,,,,,,,,,,,,,,,,,,,,,,,70.0443034999771,70.06067189993337,70.12777509994339,,,,,,,,,,,,,,,,,,,,199487,1,2024-10-16_09h55.56.901,AB,2024.1.1,None,2024-10-16 09h56.08.131116 +0200,
single,dual,ANGRY,XXYELLX,1111111.0,7.0,7.0,6.0,j,j,0.0,HLFPYXK,0,0,0,0,0,0,0,0,,,,,0,2,2,4,,,,,70.14412909990642,,,,,,,,,,,,,,,,,,,,,,,70.12806229991838,70.14412909990642,70.2111146999523,,,,,,,,,,,,,,,,,,,,199487,1,2024-10-16_09h55.56.901,AB,2024.1.1,None,2024-10-16 09h56.08.131116 +0200,
single,dual,ANGRY,XXYELLX,1111111.0,7.0,7.0,6.0,j,j,0.0,YGLMSFQ,0,0,0,0,0,0,0,0,,,,,0,3,3,1,,,,,70.22765359992627,,,,,,,,,,,,,,,,,,,,,,,70.21137639996596,70.22765359992627,70.29421490000095,,,,,,,,,,,,,,,,,,,,199487,1,2024-10-16_09h55.56.901,AB,2024.1.1,None,2024-10-16 09h56.08.131116 +0200,
single,dual,ANGRY,XXYELLX,1111111.0,7.0,7.0,6.0,j,j,0.0,VYKXSPC,0,0,0,0,0,0,0,0,,,,,0,4,4,2,,,,,70.31084449996706,,,,,,,,,,,,,,,,,,,,,,,70.29446019988973,70.31084449996706,70.37829289992806,,,,,,,,,,,,,,,,,,,,199487,1,2024-10-16_09h55.56.901,AB,2024.1.1,None,2024-10-16 09h56.08.131116 +0200,
single,dual,ANGRY,XXYELLX,1111111.0,7.0,7.0,6.0,j,j,0.0,GQKRPDL,0,0,0,0,0,0,0,0,,,,,0,5,5,5,,,,,70.39411009999458,,,,,,,,,,,,,,,,,,,,,,,70.37852169992402,70.39411009999458,70.46162029996049,,,,,,,,,,,,,,,,,,,,199487,1,2024-10-16_09h55.56.901,AB,2024.1.1,None,2024-10-16 09h56.08.131116 +0200,
single,dual,ANGRY,XXYELLX,1111111.0,7.0,7.0,6.0,j,j,0.0,ZJTSHFP,0,0,0,0,0,0,0,0,,,,,,,,,0,0,0,3,70.60028469993267,,,,,,,,,,,,,,,,,70.59115449991077,70.60028469993267,70.62748729996383,,,,,,,70.46170929993968,70.47745009989012,70.54489579994697,,,,,,,,,,,,,,,,,199487,1,2024-10-16_09h55.56.901,AB,2024.1.1,None,2024-10-16 09h56.08.131116 +0200,
single,dual,ANGRY,XXYELLX,1111111.0,7.0,7.0,6.0,j,j,0.0,HLFPYXK,0,0,0,0,0,0,0,0,,,,,,,,,0,1,1,4,70.64413449994754,,,,,,,,,,,,,,,,,70.62771409994457,70.64413449994754,70.71082669997122,,,,,,,,,,,,,,,,,,,,,,,,,,199487,1,2024-10-16_09h55.56.901,AB,2024.1.1,None,2024-10-16 09h56.08.131116 +0200,
single,dual,ANGRY,XXYELLX,1111111.0,7.0,7.0,6.0,j,j,0.0,ZTFYDXH,0,0,0,0,0,0,0,0,,,,,,,,,0,2,2,0,70.72740329999942,,,,,,,,,,,,,,,,,70.71106339991093,70.72740329999942,70.79426090000197,,,,,,,,,,,,,,,,,,,,,,,,,,199487,1,2024-10-16_09h55.56.901,AB,2024.1.1,None,2024-10-16 09h56.08.131116 +0200,
single,dual,ANGRY,XXYELLX,1111111.0,7.0,7.0,6.0,j,j,0.0,VYKXSPC,0,0,0,0,0,0,0,0,,,,,,,,,0,3,3,2,70.81076189992018,,,,,,,,,,,,,,,,,70.79452379990835,70.81076189992018,70.87758759991266,,,,,,,,,,,,,,,,,,,,,,,,,,199487,1,2024-10-16_09h55.56.901,AB,2024.1.1,None,2024-10-16 09h56.08.131116 +0200,
single,dual,ANGRY,XXYELLX,1111111.0,7.0,7.0,6.0,j,j,0.0,GQKRPDL,0,0,0,0,0,0,0,0,,,,,,,,,0,4,4,5,70.89415259996895,,,,,,,,,,,,,,,,,70.87783859996125,70.89415259996895,70.96085299993865,,,,,,,,,,,,,,,,,,,,,,,,,,199487,1,2024-10-16_09h55.56.901,AB,2024.1.1,None,2024-10-16 09h56.08.131116 +0200,
single,dual,ANGRY,XXYELLX,1111111.0,7.0,7.0,6.0,j,j,0.0,YGLMSFQ,0,0,0,0,0,0,0,0,,,,,,,,,0,5,5,1,70.97743029997218,,,,,,,,,,,,,,,,,70.96108739997726,70.97743029997218,71.04415749991313,,,,,,,,,,,,,,,,,,,,,,,,,,199487,1,2024-10-16_09h55.56.901,AB,2024.1.1,None,2024-10-16 09h56.08.131116 +0200,
single,dual,ANGRY,XXYELLX,1111111.0,7.0,7.0,6.0,j,j,0.0,,0,0,0,0,0,0,0,0,,,,,,,,,,,,,,,,,,,,,,,,,,,,,,,,,,,,,,,,,,71.04424589988776,71.04428659996483,None,0,71.04457689996343,71.06115369999316,72.0445228999015,72.0445228999015,72.06103589991108,74.0450899999123,74.0450899999123,74.0450899999123,75.0443378998898,75.02811819990166,None,0,199487,1,2024-10-16_09h55.56.901,AB,2024.1.1,None,2024-10-16 09h56.08.131116 +0200,
single,dual,WEEDS,XXEGGSX,1111111.0,7.0,7.0,6.0,j,j,0.0,ZTFYDXH,0,0,0,0,0,1,1,1,,,,,0,0,0,0,,,,,77.68160299991723,,,,,,,,,,,75.028552499949,75.0443378998898,76.0445616999641,76.0445616999641,77.0809049999807,77.02886619989295,77.46143159992062,77.47782709996682,77.5445096999174,77.54457399994135,77.56114329991397,77.62788980000187,77.67349999991711,77.68160299991723,77.71124659990892,,,,,,,,,,,,,,,,,,,,199487,1,2024-10-16_09h55.56.901,AB,2024.1.1,None,2024-10-16 09h56.08.131116 +0200,
single,dual,WEEDS,XXEGGSX,1111111.0,7.0,7.0,6.0,j,j,0.0,VYKXSPC,0,0,0,0,0,1,1,1,,,,,0,1,1,2,,,,,77.72801139997318,,,,,,,,,,,,,,,,,,,,,,,77.71147389989346,77.72801139997318,77.79473319998942,,,,,,,,,,,,,,,,,,,,199487,1,2024-10-16_09h55.56.901,AB,2024.1.1,None,2024-10-16 09h56.08.131116 +0200,
single,dual,WEEDS,XXEGGSX,1111111.0,7.0,7.0,6.0,j,j,0.0,ZJTSHFP,0,0,0,0,0,1,1,1,,,,,0,2,2,3,,,,,77.81119269994088,,,,,,,,,,,,,,,,,,,,,,,77.79497009993065,77.81119269994088,77.87889339996036,,,,,,,,,,,,,,,,,,,,199487,1,2024-10-16_09h55.56.901,AB,2024.1.1,None,2024-10-16 09h56.08.131116 +0200,
single,dual,WEEDS,XXEGGSX,1111111.0,7.0,7.0,6.0,j,j,0.0,YGLMSFQ,0,0,0,0,0,1,1,1,,,,,0,3,3,1,,,,,77.89495589991566,,,,,,,,,,,,,,,,,,,,,,,77.8791444998933,77.89495589991566,77.96124969993252,,,,,,,,,,,,,,,,,,,,199487,1,2024-10-16_09h55.56.901,AB,2024.1.1,None,2024-10-16 09h56.08.131116 +0200,
single,dual,WEEDS,XXEGGSX,1111111.0,7.0,7.0,6.0,j,j,0.0,HLFPYXK,0,0,0,0,0,1,1,1,,,,,0,4,4,4,,,,,77.97781199996825,,,,,,,,,,,,,,,,,,,,,,,77.96148439997341,77.97781199996825,78.04464109998662,,,,,,,,,,,,,,,,,,,,199487,1,2024-10-16_09h55.56.901,AB,2024.1.1,None,2024-10-16 09h56.08.131116 +0200,
single,dual,WEEDS,XXEGGSX,1111111.0,7.0,7.0,6.0,j,j,0.0,GQKRPDL,0,0,0,0,0,1,1,1,,,,,0,5,5,5,,,,,78.06116369995289,,,,,,,,,,,,,,,,,,,,,,,78.04487029998563,78.06116369995289,78.1280050999485,,,,,,,,,,,,,,,,,,,,199487,1,2024-10-16_09h55.56.901,AB,2024.1.1,None,2024-10-16 09h56.08.131116 +0200,
single,dual,WEEDS,XXEGGSX,1111111.0,7.0,7.0,6.0,j,j,0.0,ZJTSHFP,0,0,0,0,0,1,1,1,,,,,,,,,0,0,0,3,78.26630999997724,,,,,,,,,,,,,,,,,78.25733039993793,78.26630999997724,78.29453869990539,,,,,,,78.1280888998881,78.14452719991095,78.21124259999488,,,,,,,,,,,,,,,,,199487,1,2024-10-16_09h55.56.901,AB,2024.1.1,None,2024-10-16 09h56.08.131116 +0200,
single,dual,WEEDS,XXEGGSX,1111111.0,7.0,7.0,6.0,j,j,0.0,HLFPYXK,0,0,0,0,0,1,1,1,,,,,,,,,0,1,1,4,78.31117959995754,,,,,,,,,,,,,,,,,78.29476459999569,78.31117959995754,78.37796949991025,,,,,,,,,,,,,,,,,,,,,,,,,,199487,1,2024-10-16_09h55.56.901,AB,2024.1.1,None,2024-10-16 09h56.08.131116 +0200,
single,dual,WEEDS,XXEGGSX,1111111.0,7.0,7.0,6.0,j,j,0.0,GQKRPDL,0,0,0,0,0,1,1,1,,,,,,,,,0,2,2,5,78.39451729995199,,,,,,,,,,,,,,,,,78.37820279994048,78.39451729995199,78.46127739991061,,,,,,,,,,,,,,,,,,,,,,,,,,199487,1,2024-10-16_09h55.56.901,AB,2024.1.1,None,2024-10-16 09h56.08.131116 +0200,
single,dual,WEEDS,XXEGGSX,1111111.0,7.0,7.0,6.0,j,j,0.0,ZTFYDXH,0,0,0,0,0,1,1,1,,,,,,,,,0,3,3,0,78.47790589998476,,,,,,,,,,,,,,,,,78.46151449996978,78.47790589998476,78.54457189992536,,,,,,,,,,,,,,,,,,,,,,,,,,199487,1,2024-10-16_09h55.56.901,AB,2024.1.1,None,2024-10-16 09h56.08.131116 +0200,
single,dual,WEEDS,XXEGGSX,1111111.0,7.0,7.0,6.0,j,j,0.0,VYKXSPC,0,0,0,0,0,1,1,1,,,,,,,,,0,4,4,2,78.56120289990213,,,,,,,,,,,,,,,,,78.54482209996786,78.56120289990213,78.62800879997667,,,,,,,,,,,,,,,,,,,,,,,,,,199487,1,2024-10-16_09h55.56.901,AB,2024.1.1,None,2024-10-16 09h56.08.131116 +0200,
single,dual,WEEDS,XXEGGSX,1111111.0,7.0,7.0,6.0,j,j,0.0,YGLMSFQ,0,0,0,0,0,1,1,1,,,,,,,,,0,5,5,1,78.6445195999695,,,,,,,,,,,,,,,,,78.62825379997957,78.6445195999695,78.7114088999806,,,,,,,,,,,,,,,,,,,,,,,,,,199487,1,2024-10-16_09h55.56.901,AB,2024.1.1,None,2024-10-16 09h56.08.131116 +0200,
single,dual,WEEDS,XXEGGSX,1111111.0,7.0,7.0,6.0,j,j,0.0,,0,0,0,0,0,1,1,1,,,,,,,,,,,,,,,,,,,,,,,,,,,,,,,,,,,,,,,,,,78.71149689995218,78.71154199994635,None,0,78.71172739996109,78.72792479989585,79.7113208998926,79.7113208998926,79.72796930000186,81.71214429999236,81.71214429999236,81.71214429999236,82.71146339992993,82.69583489990328,None,0,199487,1,2024-10-16_09h55.56.901,AB,2024.1.1,None,2024-10-16 09h56.08.131116 +0200,
single,dual,SMALL,XCREAMX,2222222.0,7.0,3.0,10.0,f,j,0.0,ZTFYDXH,0,0,0,0,0,2,2,2,,,,,0,0,0,0,,,,,85.34930259990506,,,,,,,,,,,82.6961667999858,82.71146339992993,83.71155749994796,83.71155749994796,84.80387549998704,84.69535319996066,85.12851650000084,85.1449244999094,85.21242109988816,85.21247359993868,85.2283212998882,85.29528979992028,85.3409991998924,85.34930259990506,85.37865699990653,,,,,,,,,,,,,,,,,,,,199487,1,2024-10-16_09h55.56.901,AB,2024.1.1,None,2024-10-16 09h56.08.131116 +0200,
single,dual,SMALL,XCREAMX,2222222.0,7.0,3.0,10.0,f,j,0.0,YGLMSFQ,0,0,0,0,0,2,2,2,,,,,0,1,1,1,,,,,85.3949358999962,,,,,,,,,,,,,,,,,,,,,,,85.37888659990858,85.3949358999962,85.46164329990279,,,,,,,,,,,,,,,,,,,,199487,1,2024-10-16_09h55.56.901,AB,2024.1.1,None,2024-10-16 09h56.08.131116 +0200,
single,dual,SMALL,XCREAMX,2222222.0,7.0,3.0,10.0,f,j,0.0,YGLMSFQ,0,0,0,0,0,2,2,2,,,,,,,,,0,0,0,1,85.59989439998753,,,,,,,,,,,,,,,,,85.59120629995596,85.59989439998753,85.6284730999032,,,,,,,85.46173059998546,85.47821829991881,85.54497449996416,,,,,,,,,,,,,,,,,199487,1,2024-10-16_09h55.56.901,AB,2024.1.1,None,2024-10-16 09h56.08.131116 +0200,
single,dual,SMALL,XCREAMX,2222222.0,7.0,3.0,10.0,f,j,0.0,HQTYPJM,0,0,0,0,0,2,2,2,,,,,,,,,0,1,1,9,85.6449364,,,,,,,,,,,,,,,,,85.62870929995552,85.6449364,85.71168229996692,,,,,,,,,,,,,,,,,,,,,,,,,,199487,1,2024-10-16_09h55.56.901,AB,2024.1.1,None,2024-10-16 09h56.08.131116 +0200,
single,dual,SMALL,XCREAMX,2222222.0,7.0,3.0,10.0,f,j,0.0,GQKRPDL,0,0,0,0,0,2,2,2,,,,,,,,,0,2,2,5,85.72824399999809,,,,,,,,,,,,,,,,,85.71191949991044,85.72824399999809,85.79543679999188,,,,,,,,,,,,,,,,,,,,,,,,,,199487,1,2024-10-16_09h55.56.901,AB,2024.1.1,None,2024-10-16 09h56.08.131116 +0200,
single,dual,SMALL,XCREAMX,2222222.0,7.0,3.0,10.0,f,j,0.0,ZJTSHFP,0,0,0,0,0,2,2,2,,,,,,,,,0,3,3,3,85.81163209991064,,,,,,,,,,,,,,,,,85.79567799996585,85.81163209991064,85.87886319996323,,,,,,,,,,,,,,,,,,,,,,,,,,199487,1,2024-10-16_09h55.56.901,AB,2024.1.1,None,2024-10-16 09h56.08.131116 +0200,
single,dual,SMALL,XCREAMX,2222222.0,7.0,3.0,10.0,f,j,0.0,ZTFYDXH,0,0,0,0,0,2,2,2,,,,,,,,,0,4,4,0,85.8950266999891,,,,,,,,,,,,,,,,,85.879106999957,85.8950266999891,85.9616802999517,,,,,,,,,,,,,,,,,,,,,,,,,,199487,1,2024-10-16_09h55.56.901,AB,2024.1.1,None,2024-10-16 09h56.08.131116 +0200,
single,dual,SMALL,XCREAMX,2222222.0,7.0,3.0,10.0,f,j,0.0,HLFPYXK,0,0,0,0,0,2,2,2,,,,,,,,,0,5,5,4,85.97840509994421,,,,,,,,,,,,,,,,,85.96191709989216,85.97840509994421,86.04517699999269,,,,,,,,,,,,,,,,,,,,,,,,,,199487,1,2024-10-16_09h55.56.901,AB,2024.1.1,None,2024-10-16 09h56.08.131116 +0200,
single,dual,SMALL,XCREAMX,2222222.0,7.0,3.0,10.0,f,j,0.0,WMYFTGJ,0,0,0,0,0,2,2,2,,,,,,,,,0,6,6,6,86.06171519996133,,,,,,,,,,,,,,,,,86.04543599998578,86.06171519996133,86.1285253999522,,,,,,,,,,,,,,,,,,,,,,,,,,199487,1,2024-10-16_09h55.56.901,AB,2024.1.1,None,2024-10-16 09h56.08.131116 +0200,
single,dual,SMALL,XCREAMX,2222222.0,7.0,3.0,10.0,f,j,0.0,YNPLRQW,0,0,0,0,0,2,2,2,,,,,,,,,0,7,7,7,86.14499659999274,,,,,,,,,,,,,,,,,86.1287535999436,86.14499659999274,86.21177819999866,,,,,,,,,,,,,,,,,,,,,,,,,,199487,1,2024-10-16_09h55.56.901,AB,2024.1.1,None,2024-10-16 09h56.08.131116 +0200,
single,dual,SMALL,XCREAMX,2222222.0,7.0,3.0,10.0,f,j,0.0,VFDMHQS,0,0,0,0,0,2,2,2,,,,,,,,,0,8,8,8,86.2282718999777,,,,,,,,,,,,,,,,,86.2120253999019,86.2282718999777,86.29518219991587,,,,,,,,,,,,,,,,,,,,,,,,,,199487,1,2024-10-16_09h55.56.901,AB,2024.1.1,None,2024-10-16 09h56.08.131116 +0200,
single,dual,SMALL,XCREAMX,2222222.0,7.0,3.0,10.0,f,j,0.0,VYKXSPC,0,0,0,0,0,2,2,2,,,,,,,,,0,9,9,2,86.31168919999618,,,,,,,,,,,,,,,,,86.29541589994915,86.31168919999618,86.37861409992911,,,,,,,,,,,,,,,,,,,,,,,,,,199487,1,2024-10-16_09h55.56.901,AB,2024.1.1,None,2024-10-16 09h56.08.131116 +0200,
single,dual,SMALL,XCREAMX,2222222.0,7.0,3.0,10.0,f,j,0.0,,0,0,0,0,0,2,2,2,,,,,,,,,,,,,,,,,,,,,,,,,,,,,,,,,,,,,,,,,,86.37869399995543,86.37872949999291,None,0,86.37889899988659,86.3949681998929,87.3785320998868,87.3785320998868,87.39505039993674,89.37866799999028,89.37866799999028,89.37866799999028,90.3784914999269,90.36246139998548,None,0,199487,1,2024-10-16_09h55.56.901,AB,2024.1.1,None,2024-10-16 09h56.08.131116 +0200,
single,dual,SQUARE,XCIRCLE,7777777.0,10.0,7.0,3.0,j,f,1.0,YGLMSFQ,0,0,0,0,0,3,3,3,,,,,0,0,0,1,,,,,93.26379929995164,,,,,,,,,,,90.36278769990895,90.3784914999269,91.37917419988662,91.37917419988662,92.41754689998925,92.36259569996037,93.04561919998378,93.06201339990366,93.12872999999672,93.1287814999232,93.1453464999795,93.21210909995716,93.25740449992009,93.26379929995164,93.29539309989195,,,,,,,,,,,,,,,,,,,,199487,1,2024-10-16_09h55.56.901,AB,2024.1.1,None,2024-10-16 09h56.08.131116 +0200,
single,dual,SQUARE,XCIRCLE,7777777.0,10.0,7.0,3.0,j,f,1.0,VYKXSPC,0,0,0,0,0,3,3,3,,,,,0,1,1,2,,,,,93.31199499999639,,,,,,,,,,,,,,,,,,,,,,,93.29561739997007,93.31199499999639,93.37875489995349,,,,,,,,,,,,,,,,,,,,199487,1,2024-10-16_09h55.56.901,AB,2024.1.1,None,2024-10-16 09h56.08.131116 +0200,
single,dual,SQUARE,XCIRCLE,7777777.0,10.0,7.0,3.0,j,f,1.0,ZJTSHFP,0,0,0,0,0,3,3,3,,,,,0,2,2,3,,,,,93.39534579997417,,,,,,,,,,,,,,,,,,,,,,,93.37897889991291,93.39534579997417,93.46208099997602,,,,,,,,,,,,,,,,,,,,199487,1,2024-10-16_09h55.56.901,AB,2024.1.1,None,2024-10-16 09h56.08.131116 +0200,
single,dual,SQUARE,XCIRCLE,7777777.0,10.0,7.0,3.0,j,f,1.0,ZTFYDXH,0,0,0,0,0,3,3,3,,,,,0,3,3,0,,,,,93.47871459997259,,,,,,,,,,,,,,,,,,,,,,,93.46230039990041,93.47871459997259,93.54542819992639,,,,,,,,,,,,,,,,,,,,199487,1,2024-10-16_09h55.56.901,AB,2024.1.1,None,2024-10-16 09h56.08.131116 +0200,
single,dual,SQUARE,XCIRCLE,7777777.0,10.0,7.0,3.0,j,f,1.0,HLFPYXK,0,0,0,0,0,3,3,3,,,,,0,4,4,4,,,,,93.56211359996814,,,,,,,,,,,,,,,,,,,,,,,93.54565839993302,93.56211359996814,93.62876120000146,,,,,,,,,,,,,,,,,,,,199487,1,2024-10-16_09h55.56.901,AB,2024.1.1,None,2024-10-16 09h56.08.131116 +0200,
single,dual,SQUARE,XCIRCLE,7777777.0,10.0,7.0,3.0,j,f,1.0,GQKRPDL,0,0,0,0,0,3,3,3,,,,,0,5,5,5,,,,,93.64545079995878,,,,,,,,,,,,,,,,,,,,,,,93.6290024999762,93.64545079995878,93.7121037999168,,,,,,,,,,,,,,,,,,,,199487,1,2024-10-16_09h55.56.901,AB,2024.1.1,None,2024-10-16 09h56.08.131116 +0200,
single,dual,SQUARE,XCIRCLE,7777777.0,10.0,7.0,3.0,j,f,1.0,VYKXSPC,0,0,0,0,0,3,3,3,,,,,,,,,0,0,0,2,93.84940809989348,,,,,,,,,,,,,,,,,93.8409538998967,93.84940809989348,93.87889729999006,,,,,,,93.71218529995531,93.72874890000094,93.79541049990803,,,,,,,,,,,,,,,,,199487,1,2024-10-16_09h55.56.901,AB,2024.1.1,None,2024-10-16 09h56.08.131116 +0200,
single,dual,SQUARE,XCIRCLE,7777777.0,10.0,7.0,3.0,j,f,1.0,YGLMSFQ,0,0,0,0,0,3,3,3,,,,,,,,,0,1,1,1,93.89543009991758,,,,,,,,,,,,,,,,,93.8791522999527,93.89543009991758,93.96210759994574,,,,,,,,,,,,,,,,,,,,,,,,,,199487,1,2024-10-16_09h55.56.901,AB,2024.1.1,None,2024-10-16 09h56.08.131116 +0200,
single,dual,SQUARE,XCIRCLE,7777777.0,10.0,7.0,3.0,j,f,1.0,ZTFYDXH,0,0,0,0,0,3,3,3,,,,,,,,,0,2,2,0,93.97876289999112,,,,,,,,,,,,,,,,,93.96232569997665,93.97876289999112,94.04548659990542,,,,,,,,,,,,,,,,,,,,,,,,,,199487,1,2024-10-16_09h55.56.901,AB,2024.1.1,None,2024-10-16 09h56.08.131116 +0200,
single,dual,SQUARE,XCIRCLE,7777777.0,10.0,7.0,3.0,j,f,1.0,,0,0,0,0,0,3,3,3,,,,,,,,,,,,,,,,,,,,,,,,,,,,,,,,,,,,,,,,,,94.04557759989984,94.04561559995636,None,0,94.04578769998625,94.06233429990243,95.04560869990382,95.04560869990382,95.06213559990283,97.04636049992405,97.04636049992405,97.04636049992405,98.04564539995044,98.02939859998878,None,0,199487,1,2024-10-16_09h55.56.901,AB,2024.1.1,None,2024-10-16 09h56.08.131116 +0200,
single,dual,CARPET,XXRUGXX,5555555.0,7.0,3.0,10.0,j,f,1.0,ZTFYDXH,0,0,0,0,0,4,4,4,,,,,0,0,0,0,,,,,100.68283279996831,,,,,,,,,,,98.0297252999153,98.04564539995044,99.0459657999454,99.0459657999454,100.08353769988753,100.02956389996689,100.46269869990647,100.47909579996485,100.54580949991941,100.54586119996384,100.56244439992588,100.62935599999037,100.67458439990878,100.68283279996831,100.7125270999968,,,,,,,,,,,,,,,,,,,,199487,1,2024-10-16_09h55.56.901,AB,2024.1.1,None,2024-10-16 09h56.08.131116 +0200,
single,dual,CARPET,XXRUGXX,5555555.0,7.0,3.0,10.0,j,f,1.0,YGLMSFQ,0,0,0,0,0,4,4,4,,,,,0,1,1,1,,,,,100.72909139993135,,,,,,,,,,,,,,,,,,,,,,,100.71275649999734,100.72909139993135,100.79603939992376,,,,,,,,,,,,,,,,,,,,199487,1,2024-10-16_09h55.56.901,AB,2024.1.1,None,2024-10-16 09h56.08.131116 +0200,
single,dual,CARPET,XXRUGXX,5555555.0,7.0,3.0,10.0,j,f,1.0,VFDMHQS,0,0,0,0,0,4,4,4,,,,,,,,,0,0,0,8,100.93408059992362,,,,,,,,,,,,,,,,,100.92517019994557,100.93408059992362,100.96255149994977,,,,,,,100.79612269997597,100.81244999996852,100.87979489995632,,,,,,,,,,,,,,,,,199487,1,2024-10-16_09h55.56.901,AB,2024.1.1,None,2024-10-16 09h56.08.131116 +0200,
single,dual,CARPET,XXRUGXX,5555555.0,7.0,3.0,10.0,j,f,1.0,WMYFTGJ,0,0,0,0,0,4,4,4,,,,,,,,,0,1,1,6,100.97919469990302,,,,,,,,,,,,,,,,,100.9627803999465,100.97919469990302,101.04590019991156,,,,,,,,,,,,,,,,,,,,,,,,,,199487,1,2024-10-16_09h55.56.901,AB,2024.1.1,None,2024-10-16 09h56.08.131116 +0200,
single,dual,CARPET,XXRUGXX,5555555.0,7.0,3.0,10.0,j,f,1.0,GQKRPDL,0,0,0,0,0,4,4,4,,,,,,,,,0,2,2,5,101.06248049996793,,,,,,,,,,,,,,,,,101.04612989991438,101.06248049996793,101.12919539993163,,,,,,,,,,,,,,,,,,,,,,,,,,199487,1,2024-10-16_09h55.56.901,AB,2024.1.1,None,2024-10-16 09h56.08.131116 +0200,
single,dual,CARPET,XXRUGXX,5555555.0,7.0,3.0,10.0,j,f,1.0,YNPLRQW,0,0,0,0,0,4,4,4,,,,,,,,,0,3,3,7,101.14581679995172,,,,,,,,,,,,,,,,,101.1294338000007,101.14581679995172,101.21253489993978,,,,,,,,,,,,,,,,,,,,,,,,,,199487,1,2024-10-16_09h55.56.901,AB,2024.1.1,None,2024-10-16 09h56.08.131116 +0200,
single,dual,CARPET,XXRUGXX,5555555.0,7.0,3.0,10.0,j,f,1.0,ZTFYDXH,0,0,0,0,0,4,4,4,,,,,,,,,0,4,4,0,101.2291398999514,,,,,,,,,,,,,,,,,101.21277069998905,101.2291398999514,101.29631449992303,,,,,,,,,,,,,,,,,,,,,,,,,,199487,1,2024-10-16_09h55.56.901,AB,2024.1.1,None,2024-10-16 09h56.08.131116 +0200,
single,dual,CARPET,XXRUGXX,5555555.0,7.0,3.0,10.0,j,f,1.0,HQTYPJM,0,0,0,0,0,4,4,4,,,,,,,,,0,5,5,9,101.31245169998147,,,,,,,,,,,,,,,,,101.29654569993727,101.31245169998147,101.37919479992706,,,,,,,,,,,,,,,,,,,,,,,,,,199487,1,2024-10-16_09h55.56.901,AB,2024.1.1,None,2024-10-16 09h56.08.131116 +0200,
single,dual,CARPET,XXRUGXX,5555555.0,7.0,3.0,10.0,j,f,1.0,ZJTSHFP,0,0,0,0,0,4,4,4,,,,,,,,,0,6,6,3,101.39583850000054,,,,,,,,,,,,,,,,,101.37946949992329,101.39583850000054,101.46256869996432,,,,,,,,,,,,,,,,,,,,,,,,,,199487,1,2024-10-16_09h55.56.901,AB,2024.1.1,None,2024-10-16 09h56.08.131116 +0200,
single,dual,CARPET,XXRUGXX,5555555.0,7.0,3.0,10.0,j,f,1.0,HLFPYXK,0,0,0,0,0,4,4,4,,,,,,,,,0,7,7,4,101.47920899989549,,,,,,,,,,,,,,,,,101.46279989997856,101.47920899989549,101.54597919993103,,,,,,,,,,,,,,,,,,,,,,,,,,199487,1,2024-10-16_09h55.56.901,AB,2024.1.1,None,2024-10-16 09h56.08.131116 +0200,
single,dual,CARPET,XXRUGXX,5555555.0,7.0,3.0,10.0,j,f,1.0,VYKXSPC,0,0,0,0,0,4,4,4,,,,,,,,,0,8,8,2,101.56245689990465,,,,,,,,,,,,,,,,,101.54621919989586,101.56245689990465,101.62924139993265,,,,,,,,,,,,,,,,,,,,,,,,,,199487,1,2024-10-16_09h55.56.901,AB,2024.1.1,None,2024-10-16 09h56.08.131116 +0200,
single,dual,CARPET,XXRUGXX,5555555.0,7.0,3.0,10.0,j,f,1.0,YGLMSFQ,0,0,0,0,0,4,4,4,,,,,,,,,0,9,9,1,101.64581909996923,,,,,,,,,,,,,,,,,101.62946749990806,101.64581909996923,101.71252919989638,,,,,,,,,,,,,,,,,,,,,,,,,,199487,1,2024-10-16_09h55.56.901,AB,2024.1.1,None,2024-10-16 09h56.08.131116 +0200,
single,dual,CARPET,XXRUGXX,5555555.0,7.0,3.0,10.0,j,f,1.0,,0,0,0,0,0,4,4,4,,,,,,,,,,,,,,,,,,,,,,,,,,,,,,,,,,,,,,,,,,101.71260829991661,101.7126504998887,None,0,101.7128142999718,101.7291419999674,102.71257089998107,102.71257089998107,102.72919489990454,104.71282939997036,104.71282939997036,104.71282939997036,105.71270039991941,105.69716849992983,None,0,199487,1,2024-10-16_09h55.56.901,AB,2024.1.1,None,2024-10-16 09h56.08.131116 +0200,
single,dual,STORM,XCLOUDX,7777777.0,10.0,3.0,7.0,j,f,1.0,YGLMSFQ,0,0,0,0,0,5,5,5,,,,,0,0,0,1,,,,,108.59869469993282,,,,,,,,,,,105.697495099972,105.71270039991941,106.71292879991233,106.71292879991233,107.75145509990398,107.69730299990624,108.3798541999422,108.39632409997284,108.4629200999625,108.46296959999017,108.47966249997262,108.54636069992557,108.59197909990326,108.59869469993282,108.6296189998975,,,,,,,,,,,,,,,,,,,,199487,1,2024-10-16_09h55.56.901,AB,2024.1.1,None,2024-10-16 09h56.08.131116 +0200,
single,dual,STORM,XCLOUDX,7777777.0,10.0,3.0,7.0,j,f,1.0,ZTFYDXH,0,0,0,0,0,5,5,5,,,,,0,1,1,0,,,,,108.6463575999951,,,,,,,,,,,,,,,,,,,,,,,108.62985829997342,108.6463575999951,108.71296759997495,,,,,,,,,,,,,,,,,,,,199487,1,2024-10-16_09h55.56.901,AB,2024.1.1,None,2024-10-16 09h56.08.131116 +0200,
single,dual,STORM,XCLOUDX,7777777.0,10.0,3.0,7.0,j,f,1.0,ZTFYDXH,0,0,0,0,0,5,5,5,,,,,,,,,0,0,0,0,108.85043199989013,,,,,,,,,,,,,,,,,108.84216259990353,108.85043199989013,108.87966359988786,,,,,,,108.71305449993815,108.72957169997972,108.79632299998775,,,,,,,,,,,,,,,,,199487,1,2024-10-16_09h55.56.901,AB,2024.1.1,None,2024-10-16 09h56.08.131116 +0200,
single,dual,STORM,XCLOUDX,7777777.0,10.0,3.0,7.0,j,f,1.0,ZJTSHFP,0,0,0,0,0,5,5,5,,,,,,,,,0,1,1,3,108.89625609992072,,,,,,,,,,,,,,,,,108.87990489997901,108.89625609992072,108.96297999995295,,,,,,,,,,,,,,,,,,,,,,,,,,199487,1,2024-10-16_09h55.56.901,AB,2024.1.1,None,2024-10-16 09h56.08.131116 +0200,
single,dual,STORM,XCLOUDX,7777777.0,10.0,3.0,7.0,j,f,1.0,GQKRPDL,0,0,0,0,0,5,5,5,,,,,,,,,0,2,2,5,108.97958999988623,,,,,,,,,,,,,,,,,108.96321739989799,108.97958999988623,109.04636059992481,,,,,,,,,,,,,,,,,,,,,,,,,,199487,1,2024-10-16_09h55.56.901,AB,2024.1.1,None,2024-10-16 09h56.08.131116 +0200,
single,dual,STORM,XCLOUDX,7777777.0,10.0,3.0,7.0,j,f,1.0,HLFPYXK,0,0,0,0,0,5,5,5,,,,,,,,,0,3,3,4,109.06290499994066,,,,,,,,,,,,,,,,,109.04658729990479,109.06290499994066,109.12966529990081,,,,,,,,,,,,,,,,,,,,,,,,,,199487,1,2024-10-16_09h55.56.901,AB,2024.1.1,None,2024-10-16 09h56.08.131116 +0200,
single,dual,STORM,XCLOUDX,7777777.0,10.0,3.0,7.0,j,f,1.0,WMYFTGJ,0,0,0,0,0,5,5,5,,,,,,,,,0,4,4,6,109.14625140000135,,,,,,,,,,,,,,,,,109.12989809992723,109.14625140000135,109.21293909999076,,,,,,,,,,,,,,,,,,,,,,,,,,199487,1,2024-10-16_09h55.56.901,AB,2024.1.1,None,2024-10-16 09h56.08.131116 +0200,
single,dual,STORM,XCLOUDX,7777777.0,10.0,3.0,7.0,j,f,1.0,VYKXSPC,0,0,0,0,0,5,5,5,,,,,,,,,0,5,5,2,109.22958159993868,,,,,,,,,,,,,,,,,109.21316399995703,109.22958159993868,109.29639249993488,,,,,,,,,,,,,,,,,,,,,,,,,,199487,1,2024-10-16_09h55.56.901,AB,2024.1.1,None,2024-10-16 09h56.08.131116 +0200,
single,dual,STORM,XCLOUDX,7777777.0,10.0,3.0,7.0,j,f,1.0,YGLMSFQ,0,0,0,0,0,5,5,5,,,,,,,,,0,6,6,1,109.31298519996926,,,,,,,,,,,,,,,,,109.29662829998415,109.31298519996926,109.37962829996832,,,,,,,,,,,,,,,,,,,,,,,,,,199487,1,2024-10-16_09h55.56.901,AB,2024.1.1,None,2024-10-16 09h56.08.131116 +0200,
,,,,,,,,,,,,,,,,,,,,,,,,,,,,,,,,,,,,,,,,,,,,,,,,,,,,,,,,,,,,,109.37970839999616,109.37974219990429,None,0,109.37991869996767,109.39699189993553,110.37969139998313,110.37969139998313,110.39632489997894,112.3800443999935,112.3800443999935,112.3800443999935,,,,,,,,,,,,
