task1,task2,T0,T2,T1,lagT0,lagT1,lagT2,responseT1,responseT2,related,block.thisRepN,block.thisTrialN,block.thisN,block.thisIndex,trial.thisRepN,trial.thisTrialN,trial.thisN,trial.thisIndex,trials_T0_context.thisRepN,trials_T0_context.thisTrialN,trials_T0_context.thisN,trials_T0_context.thisIndex,trials_T1.thisRepN,trials_T1.thisTrialN,trials_T1.thisN,trials_T1.thisIndex,trials_T2.thisRepN,trials_T2.thisTrialN,trials_T2.thisN,trials_T2.thisIndex,text_instructions.started,key_resp.started,key_resp.keys,key_resp.rt,key_resp.duration,context_word.started,blankContext.started,context_word.stopped,blankContext.stopped,distractor_T0,text_distr_T0.started,text_distr_T0.stopped,text_blank_distractors_T0.started,text_blank_distractors_T0.stopped,text_T1.started,text_T1.stopped,text_blank_number_T1.started,text_blank_number_T1.stopped,distractor_T1,text_distr_T1.started,text_distr_T1.stopped,text_blank_distractors_T1.started,text_blank_distractors_T1.stopped,text_T2.started,text_T2.stopped,text_blank_T2_probe.started,text_blank_T2_probe.stopped,distractor_T2,text_distr_T2.started,text_distr_T2.stopped,text_blank_distractors_T2.started,text_blank_distractors_T2.stopped,key_resp_T1.keys,key_resp_T1.corr,blankT2_1.started,text_T2ask.started,key_resp_T2.started,blankT2_1.stopped,text_T2ask.stopped,blankT2_2.started,key_resp_T2.stopped,blankT2_2.stopped,key_resp_T2.keys,key_resp_T2.corr,participant,order [1: single-dual or 2: dual-single],refresh rate (Hz),language,date,expName,psychopyVersion,frameRate,
,,,,,,,,,,,,,,,,,,,,,,,,,,,,,,,15.297072700000172,15.297072700000172,space,2.400546700000632,None,,,,,,,,,,,,,,,,,,,,,,,,,,,,,,,,,,,,,,,,422927,1,60,en,2024-11-26_16h06.42.315,AB,2023.1.3,59.963757904713,
single,dual,PUNCH,XXHITXX,5555555.0,7,7,6,f,f,1,0,0,0,0,0,0,0,0,0,0,0,0,,,,,,,,,,,,,,17.863640399999895,18.859081399999923,18.876104199999645,19.859144099999867,QJHRMSW,19.859144099999867,19.892663399999947,19.892663399999947,19.942550400000073,,,,,,,,,,,,,,,,,,,,,,,,,,,,,,,422927,1,60,en,2024-11-26_16h06.42.315,AB,2023.1.3,59.963757904713,
single,dual,PUNCH,XXHITXX,5555555.0,7,7,6,f,f,1,0,0,0,0,0,0,0,0,1,0,1,0,,,,,,,,,,,,,,,,,,LXPCBYV,19.942550400000073,19.976016399999935,19.976016399999935,20.025840100000096,,,,,,,,,,,,,,,,,,,,,,,,,,,,,,,422927,1,60,en,2024-11-26_16h06.42.315,AB,2023.1.3,59.963757904713,
single,dual,PUNCH,XXHITXX,5555555.0,7,7,6,f,f,1,0,0,0,0,0,0,0,0,2,0,2,0,,,,,,,,,,,,,,,,,,JYHGLVT,20.025840100000096,20.059360799999922,20.059360799999922,20.109179899999617,,,,,,,,,,,,,,,,,,,,,,,,,,,,,,,422927,1,60,en,2024-11-26_16h06.42.315,AB,2023.1.3,59.963757904713,
single,dual,PUNCH,XXHITXX,5555555.0,7,7,6,f,f,1,0,0,0,0,0,0,0,0,3,0,3,0,,,,,,,,,,,,,,,,,,YKBVRXQ,20.109179899999617,20.142643600000156,20.142643600000156,20.19251709999935,,,,,,,,,,,,,,,,,,,,,,,,,,,,,,,422927,1,60,en,2024-11-26_16h06.42.315,AB,2023.1.3,59.963757904713,
single,dual,PUNCH,XXHITXX,5555555.0,7,7,6,f,f,1,0,0,0,0,0,0,0,0,4,0,4,0,,,,,,,,,,,,,,,,,,HBYXZPQ,20.19251709999935,20.225948599999356,20.225948599999356,20.275868499999888,,,,,,,,,,,,,,,,,,,,,,,,,,,,,,,422927,1,60,en,2024-11-26_16h06.42.315,AB,2023.1.3,59.963757904713,
single,dual,PUNCH,XXHITXX,5555555.0,7,7,6,f,f,1,0,0,0,0,0,0,0,0,5,0,5,0,,,,,,,,,,,,,,,,,,HSRYTDV,20.275868499999888,20.309171299999434,20.309171299999434,20.359223200000088,,,,,,,,,,,,,,,,,,,,,,,,,,,,,,,422927,1,60,en,2024-11-26_16h06.42.315,AB,2023.1.3,59.963757904713,
single,dual,PUNCH,XXHITXX,5555555.0,7,7,6,f,f,1,0,0,0,0,0,0,0,0,,,,,0,0,0,0,,,,,,,,,,,,,,,,,,,20.359223200000088,20.392530199999783,20.392530199999783,20.442534899999373,GMNQLRX,20.442534899999373,20.47603220000019,20.47603220000019,20.525865300000078,,,,,,,,,,,,,,,,,,,,,,422927,1,60,en,2024-11-26_16h06.42.315,AB,2023.1.3,59.963757904713,
single,dual,PUNCH,XXHITXX,5555555.0,7,7,6,f,f,1,0,0,0,0,0,0,0,0,,,,,1,0,1,0,,,,,,,,,,,,,,,,,,,,,,,NHJLSMY,20.525865300000078,20.55929719999949,20.55929719999949,20.609176399999342,,,,,,,,,,,,,,,,,,,,,,422927,1,60,en,2024-11-26_16h06.42.315,AB,2023.1.3,59.963757904713,
single,dual,PUNCH,XXHITXX,5555555.0,7,7,6,f,f,1,0,0,0,0,0,0,0,0,,,,,2,0,2,0,,,,,,,,,,,,,,,,,,,,,,,JSPWLYG,20.609176399999342,20.642753699999957,20.642753699999957,20.692591099999845,,,,,,,,,,,,,,,,,,,,,,422927,1,60,en,2024-11-26_16h06.42.315,AB,2023.1.3,59.963757904713,
single,dual,PUNCH,XXHITXX,5555555.0,7,7,6,f,f,1,0,0,0,0,0,0,0,0,,,,,3,0,3,0,,,,,,,,,,,,,,,,,,,,,,,HNVCZDJ,20.692591099999845,20.72589389999939,20.72589389999939,20.775931499999388,,,,,,,,,,,,,,,,,,,,,,422927,1,60,en,2024-11-26_16h06.42.315,AB,2023.1.3,59.963757904713,
single,dual,PUNCH,XXHITXX,5555555.0,7,7,6,f,f,1,0,0,0,0,0,0,0,0,,,,,4,0,4,0,,,,,,,,,,,,,,,,,,,,,,,XHYKMTW,20.775931499999388,20.809189999999944,20.809189999999944,20.85936169999968,,,,,,,,,,,,,,,,,,,,,,422927,1,60,en,2024-11-26_16h06.42.315,AB,2023.1.3,59.963757904713,
single,dual,PUNCH,XXHITXX,5555555.0,7,7,6,f,f,1,0,0,0,0,0,0,0,0,,,,,5,0,5,0,,,,,,,,,,,,,,,,,,,,,,,FSPHQWR,20.85936169999968,20.892578799999683,20.892578799999683,20.942565599999398,,,,,,,,,,,,,,,,,,,,,,422927,1,60,en,2024-11-26_16h06.42.315,AB,2023.1.3,59.963757904713,
single,dual,PUNCH,XXHITXX,5555555.0,7,7,6,f,f,1,0,0,0,0,0,0,0,0,,,,,,,,,0,0,0,0,,,,,,,,,,,,,,,,,,,,,,,,20.942565599999398,20.97617149999951,20.97617149999951,21.0258632999994,FSPHQWR,21.0258632999994,21.059221699999398,21.059221699999398,21.109203399999387,,,,,,,,,,,,,422927,1,60,en,2024-11-26_16h06.42.315,AB,2023.1.3,59.963757904713,
single,dual,PUNCH,XXHITXX,5555555.0,7,7,6,f,f,1,0,0,0,0,0,0,0,0,,,,,,,,,1,0,1,0,,,,,,,,,,,,,,,,,,,,,,,,,,,,WJLBSFG,21.109203399999387,21.142885899999783,21.142885899999783,21.19255389999944,,,,,,,,,,,,,422927,1,60,en,2024-11-26_16h06.42.315,AB,2023.1.3,59.963757904713,
single,dual,PUNCH,XXHITXX,5555555.0,7,7,6,f,f,1,0,0,0,0,0,0,0,0,,,,,,,,,2,0,2,0,,,,,,,,,,,,,,,,,,,,,,,,,,,,KYCMTSL,21.19255389999944,21.22600650000004,21.22600650000004,21.275955299999623,,,,,,,,,,,,,422927,1,60,en,2024-11-26_16h06.42.315,AB,2023.1.3,59.963757904713,
single,dual,PUNCH,XXHITXX,5555555.0,7,7,6,f,f,1,0,0,0,0,0,0,0,0,,,,,,,,,3,0,3,0,,,,,,,,,,,,,,,,,,,,,,,,,,,,NWFDLHC,21.275955299999623,21.309397299999546,21.309397299999546,21.359228799999983,,,,,,,,,,,,,422927,1,60,en,2024-11-26_16h06.42.315,AB,2023.1.3,59.963757904713,
single,dual,PUNCH,XXHITXX,5555555.0,7,7,6,f,f,1,0,0,0,0,0,0,0,0,,,,,,,,,4,0,4,0,,,,,,,,,,,,,,,,,,,,,,,,,,,,QMKXRDV,21.359228799999983,21.392633999999816,21.392633999999816,21.442642799999703,,,,,,,,,,,,,422927,1,60,en,2024-11-26_16h06.42.315,AB,2023.1.3,59.963757904713,
single,dual,PUNCH,XXHITXX,5555555.0,7,7,6,f,f,1,0,0,0,0,0,0,0,0,,,,,,,,,5,0,5,0,,,,,,,,,,,,,,,,,,,,,,,,,,,,ZMYNQKG,21.442642799999703,21.475897799999984,21.475897799999984,21.52609769999981,,,,,,,,,,,,,422927,1,60,en,2024-11-26_16h06.42.315,AB,2023.1.3,59.963757904713,
single,dual,PUNCH,XXHITXX,5555555.0,7,7,6,f,f,1,0,0,0,0,0,0,0,0,,,,,,,,,,,,,,,,,,,,,,,,,,,,,,,,,,,,,,,,,,,,,None,0,21.52609769999981,22.50946659999954,22.50946659999954,22.526005499999883,24.509435299999495,24.509435299999495,24.509435299999495,25.509487799999988,None,0,422927,1,60,en,2024-11-26_16h06.42.315,AB,2023.1.3,59.963757904713,
single,dual,FORK,XSPOONX,4444444.0,7,7,6,j,f,1,0,0,0,0,0,1,1,1,0,0,0,0,,,,,,,,,,,,,,25.509487799999988,26.5097138000001,26.5097138000001,27.509588699999767,STYJQCL,27.509588699999767,27.54306480000014,27.54306480000014,27.593053900000086,,,,,,,,,,,,,,,,,,,,,,,,,,,,,,,422927,1,60,en,2024-11-26_16h06.42.315,AB,2023.1.3,59.963757904713,
single,dual,FORK,XSPOONX,4444444.0,7,7,6,j,f,1,0,0,0,0,0,1,1,1,1,0,1,0,,,,,,,,,,,,,,,,,,XCJQTSV,27.593053900000086,27.626473799999985,27.626473799999985,27.67629450000004,,,,,,,,,,,,,,,,,,,,,,,,,,,,,,,422927,1,60,en,2024-11-26_16h06.42.315,AB,2023.1.3,59.963757904713,
single,dual,FORK,XSPOONX,4444444.0,7,7,6,j,f,1,0,0,0,0,0,1,1,1,2,0,2,0,,,,,,,,,,,,,,,,,,TBWPYRJ,27.67629450000004,27.709670899999765,27.709670899999765,27.759628699999666,,,,,,,,,,,,,,,,,,,,,,,,,,,,,,,422927,1,60,en,2024-11-26_16h06.42.315,AB,2023.1.3,59.963757904713,
single,dual,FORK,XSPOONX,4444444.0,7,7,6,j,f,1,0,0,0,0,0,1,1,1,3,0,3,0,,,,,,,,,,,,,,,,,,NKJMRYD,27.759628699999666,27.792962699999407,27.792962699999407,27.84297659999993,,,,,,,,,,,,,,,,,,,,,,,,,,,,,,,422927,1,60,en,2024-11-26_16h06.42.315,AB,2023.1.3,59.963757904713,
single,dual,FORK,XSPOONX,4444444.0,7,7,6,j,f,1,0,0,0,0,0,1,1,1,4,0,4,0,,,,,,,,,,,,,,,,,,HYPNQLJ,27.84297659999993,27.876585899999554,27.876585899999554,27.926334799999495,,,,,,,,,,,,,,,,,,,,,,,,,,,,,,,422927,1,60,en,2024-11-26_16h06.42.315,AB,2023.1.3,59.963757904713,
single,dual,FORK,XSPOONX,4444444.0,7,7,6,j,f,1,0,0,0,0,0,1,1,1,5,0,5,0,,,,,,,,,,,,,,,,,,WHZYTJG,27.926334799999495,27.959806699999717,27.959806699999717,28.009620199999517,,,,,,,,,,,,,,,,,,,,,,,,,,,,,,,422927,1,60,en,2024-11-26_16h06.42.315,AB,2023.1.3,59.963757904713,
single,dual,FORK,XSPOONX,4444444.0,7,7,6,j,f,1,0,0,0,0,0,1,1,1,,,,,0,0,0,0,,,,,,,,,,,,,,,,,,,28.009620199999517,28.042969099999937,28.042969099999937,28.092975399999887,YVMZPJX,28.092975399999887,28.12645049999992,28.12645049999992,28.176335199999812,,,,,,,,,,,,,,,,,,,,,,422927,1,60,en,2024-11-26_16h06.42.315,AB,2023.1.3,59.963757904713,
single,dual,FORK,XSPOONX,4444444.0,7,7,6,j,f,1,0,0,0,0,0,1,1,1,,,,,1,0,1,0,,,,,,,,,,,,,,,,,,,,,,,WBJZGQL,28.176335199999812,28.209846599999764,28.209846599999764,28.259667700000136,,,,,,,,,,,,,,,,,,,,,,422927,1,60,en,2024-11-26_16h06.42.315,AB,2023.1.3,59.963757904713,
single,dual,FORK,XSPOONX,4444444.0,7,7,6,j,f,1,0,0,0,0,0,1,1,1,,,,,2,0,2,0,,,,,,,,,,,,,,,,,,,,,,,BJGZLQT,28.259667700000136,28.293128799999977,28.293128799999977,28.343025000000125,,,,,,,,,,,,,,,,,,,,,,422927,1,60,en,2024-11-26_16h06.42.315,AB,2023.1.3,59.963757904713,
single,dual,FORK,XSPOONX,4444444.0,7,7,6,j,f,1,0,0,0,0,0,1,1,1,,,,,3,0,3,0,,,,,,,,,,,,,,,,,,,,,,,FMTNBWL,28.343025000000125,28.37661500000013,28.37661500000013,28.426313899999514,,,,,,,,,,,,,,,,,,,,,,422927,1,60,en,2024-11-26_16h06.42.315,AB,2023.1.3,59.963757904713,
single,dual,FORK,XSPOONX,4444444.0,7,7,6,j,f,1,0,0,0,0,0,1,1,1,,,,,4,0,4,0,,,,,,,,,,,,,,,,,,,,,,,TGNHSCK,28.426313899999514,28.45968929999981,28.45968929999981,28.50968869999997,,,,,,,,,,,,,,,,,,,,,,422927,1,60,en,2024-11-26_16h06.42.315,AB,2023.1.3,59.963757904713,
single,dual,FORK,XSPOONX,4444444.0,7,7,6,j,f,1,0,0,0,0,0,1,1,1,,,,,5,0,5,0,,,,,,,,,,,,,,,,,,,,,,,MQYRHNC,28.50968869999997,28.542983499999536,28.542983499999536,28.59306789999937,,,,,,,,,,,,,,,,,,,,,,422927,1,60,en,2024-11-26_16h06.42.315,AB,2023.1.3,59.963757904713,
single,dual,FORK,XSPOONX,4444444.0,7,7,6,j,f,1,0,0,0,0,0,1,1,1,,,,,,,,,0,0,0,0,,,,,,,,,,,,,,,,,,,,,,,,28.59306789999937,28.62636659999953,28.62636659999953,28.676420199999484,MQYRHNC,28.676420199999484,28.709692200000063,28.709692200000063,28.75967859999946,,,,,,,,,,,,,422927,1,60,en,2024-11-26_16h06.42.315,AB,2023.1.3,59.963757904713,
single,dual,FORK,XSPOONX,4444444.0,7,7,6,j,f,1,0,0,0,0,0,1,1,1,,,,,,,,,1,0,1,0,,,,,,,,,,,,,,,,,,,,,,,,,,,,KLNBPQT,28.75967859999946,28.793105599999762,28.793105599999762,28.843059099999664,,,,,,,,,,,,,422927,1,60,en,2024-11-26_16h06.42.315,AB,2023.1.3,59.963757904713,
single,dual,FORK,XSPOONX,4444444.0,7,7,6,j,f,1,0,0,0,0,0,1,1,1,,,,,,,,,2,0,2,0,,,,,,,,,,,,,,,,,,,,,,,,,,,,HFKTSRN,28.843059099999664,28.876388199999383,28.876388199999383,28.926408999999694,,,,,,,,,,,,,422927,1,60,en,2024-11-26_16h06.42.315,AB,2023.1.3,59.963757904713,
single,dual,FORK,XSPOONX,4444444.0,7,7,6,j,f,1,0,0,0,0,0,1,1,1,,,,,,,,,3,0,3,0,,,,,,,,,,,,,,,,,,,,,,,,,,,,PWLQDYR,28.926408999999694,28.959688099999767,28.959688099999767,29.00969939999959,,,,,,,,,,,,,422927,1,60,en,2024-11-26_16h06.42.315,AB,2023.1.3,59.963757904713,
single,dual,FORK,XSPOONX,4444444.0,7,7,6,j,f,1,0,0,0,0,0,1,1,1,,,,,,,,,4,0,4,0,,,,,,,,,,,,,,,,,,,,,,,,,,,,HVRJQDF,29.00969939999959,29.043049599999904,29.043049599999904,29.09328379999988,,,,,,,,,,,,,422927,1,60,en,2024-11-26_16h06.42.315,AB,2023.1.3,59.963757904713,
single,dual,FORK,XSPOONX,4444444.0,7,7,6,j,f,1,0,0,0,0,0,1,1,1,,,,,,,,,5,0,5,0,,,,,,,,,,,,,,,,,,,,,,,,,,,,GQKNHDX,29.09328379999988,29.126402199999575,29.126402199999575,29.176396899999418,,,,,,,,,,,,,422927,1,60,en,2024-11-26_16h06.42.315,AB,2023.1.3,59.963757904713,
single,dual,FORK,XSPOONX,4444444.0,7,7,6,j,f,1,0,0,0,0,0,1,1,1,,,,,,,,,,,,,,,,,,,,,,,,,,,,,,,,,,,,,,,,,,,,,None,0,29.176396899999418,30.159734599999865,30.159734599999865,30.17645949999951,32.15985809999984,32.15985809999984,32.15985809999984,33.1601028999994,None,0,422927,1,60,en,2024-11-26_16h06.42.315,AB,2023.1.3,59.963757904713,
single,dual,CIRCUS,WINDOWS,8888888.0,10,7,3,j,j,0,0,0,0,0,0,2,2,2,0,0,0,0,,,,,,,,,,,,,,33.1601028999994,34.16005519999999,34.16005519999999,35.16006219999963,ZCSYXGV,35.16006219999963,35.193614400000115,35.193614400000115,35.243392599999424,,,,,,,,,,,,,,,,,,,,,,,,,,,,,,,422927,1,60,en,2024-11-26_16h06.42.315,AB,2023.1.3,59.963757904713,
single,dual,CIRCUS,WINDOWS,8888888.0,10,7,3,j,j,0,0,0,0,0,0,2,2,2,1,0,1,0,,,,,,,,,,,,,,,,,,LZYCJGD,35.243392599999424,35.2769030999998,35.2769030999998,35.3267292999999,,,,,,,,,,,,,,,,,,,,,,,,,,,,,,,422927,1,60,en,2024-11-26_16h06.42.315,AB,2023.1.3,59.963757904713,
single,dual,CIRCUS,WINDOWS,8888888.0,10,7,3,j,j,0,0,0,0,0,0,2,2,2,2,0,2,0,,,,,,,,,,,,,,,,,,XSPRFDT,35.3267292999999,35.360114399999475,35.360114399999475,35.410209900000154,,,,,,,,,,,,,,,,,,,,,,,,,,,,,,,422927,1,60,en,2024-11-26_16h06.42.315,AB,2023.1.3,59.963757904713,
single,dual,CIRCUS,WINDOWS,8888888.0,10,7,3,j,j,0,0,0,0,0,0,2,2,2,3,0,3,0,,,,,,,,,,,,,,,,,,HCWGDYZ,35.410209900000154,35.44336209999983,35.44336209999983,35.49337089999972,,,,,,,,,,,,,,,,,,,,,,,,,,,,,,,422927,1,60,en,2024-11-26_16h06.42.315,AB,2023.1.3,59.963757904713,
single,dual,CIRCUS,WINDOWS,8888888.0,10,7,3,j,j,0,0,0,0,0,0,2,2,2,4,0,4,0,,,,,,,,,,,,,,,,,,YXDQSBM,35.49337089999972,35.526906000000054,35.526906000000054,35.57669589999932,,,,,,,,,,,,,,,,,,,,,,,,,,,,,,,422927,1,60,en,2024-11-26_16h06.42.315,AB,2023.1.3,59.963757904713,
single,dual,CIRCUS,WINDOWS,8888888.0,10,7,3,j,j,0,0,0,0,0,0,2,2,2,5,0,5,0,,,,,,,,,,,,,,,,,,NFHVPDR,35.57669589999932,35.61005879999993,35.61005879999993,35.66014499999983,,,,,,,,,,,,,,,,,,,,,,,,,,,,,,,422927,1,60,en,2024-11-26_16h06.42.315,AB,2023.1.3,59.963757904713,
single,dual,CIRCUS,WINDOWS,8888888.0,10,7,3,j,j,0,0,0,0,0,0,2,2,2,6,0,6,0,,,,,,,,,,,,,,,,,,QKLVFYM,35.66014499999983,35.69365079999989,35.69365079999989,35.74337439999999,,,,,,,,,,,,,,,,,,,,,,,,,,,,,,,422927,1,60,en,2024-11-26_16h06.42.315,AB,2023.1.3,59.963757904713,
single,dual,CIRCUS,WINDOWS,8888888.0,10,7,3,j,j,0,0,0,0,0,0,2,2,2,7,0,7,0,,,,,,,,,,,,,,,,,,VFCNMZR,35.74337439999999,35.77671289999944,35.77671289999944,35.826742000000195,,,,,,,,,,,,,,,,,,,,,,,,,,,,,,,422927,1,60,en,2024-11-26_16h06.42.315,AB,2023.1.3,59.963757904713,
single,dual,CIRCUS,WINDOWS,8888888.0,10,7,3,j,j,0,0,0,0,0,0,2,2,2,8,0,8,0,,,,,,,,,,,,,,,,,,VBTLKZG,35.826742000000195,35.86041099999966,35.86041099999966,35.91011689999959,,,,,,,,,,,,,,,,,,,,,,,,,,,,,,,422927,1,60,en,2024-11-26_16h06.42.315,AB,2023.1.3,59.963757904713,
single,dual,CIRCUS,WINDOWS,8888888.0,10,7,3,j,j,0,0,0,0,0,0,2,2,2,,,,,0,0,0,0,,,,,,,,,,,,,,,,,,,35.91011689999959,35.943596299999626,35.943596299999626,35.99342919999981,HXYZLST,35.99342919999981,36.026824399999896,36.026824399999896,36.076743099999476,,,,,,,,,,,,,,,,,,,,,,422927,1,60,en,2024-11-26_16h06.42.315,AB,2023.1.3,59.963757904713,
single,dual,CIRCUS,WINDOWS,8888888.0,10,7,3,j,j,0,0,0,0,0,0,2,2,2,,,,,1,0,1,0,,,,,,,,,,,,,,,,,,,,,,,ZLSYJQX,36.076743099999476,36.11008969999966,36.11008969999966,36.16023049999967,,,,,,,,,,,,,,,,,,,,,,422927,1,60,en,2024-11-26_16h06.42.315,AB,2023.1.3,59.963757904713,
single,dual,CIRCUS,WINDOWS,8888888.0,10,7,3,j,j,0,0,0,0,0,0,2,2,2,,,,,2,0,2,0,,,,,,,,,,,,,,,,,,,,,,,MJZPYWT,36.16023049999967,36.193477099999654,36.193477099999654,36.24342079999951,,,,,,,,,,,,,,,,,,,,,,422927,1,60,en,2024-11-26_16h06.42.315,AB,2023.1.3,59.963757904713,
single,dual,CIRCUS,WINDOWS,8888888.0,10,7,3,j,j,0,0,0,0,0,0,2,2,2,,,,,3,0,3,0,,,,,,,,,,,,,,,,,,,,,,,GPBCRVT,36.24342079999951,36.27676729999985,36.27676729999985,36.32675119999931,,,,,,,,,,,,,,,,,,,,,,422927,1,60,en,2024-11-26_16h06.42.315,AB,2023.1.3,59.963757904713,
single,dual,CIRCUS,WINDOWS,8888888.0,10,7,3,j,j,0,0,0,0,0,0,2,2,2,,,,,4,0,4,0,,,,,,,,,,,,,,,,,,,,,,,NMVKJWG,36.32675119999931,36.360266099999535,36.360266099999535,36.41012909999972,,,,,,,,,,,,,,,,,,,,,,422927,1,60,en,2024-11-26_16h06.42.315,AB,2023.1.3,59.963757904713,
single,dual,CIRCUS,WINDOWS,8888888.0,10,7,3,j,j,0,0,0,0,0,0,2,2,2,,,,,5,0,5,0,,,,,,,,,,,,,,,,,,,,,,,XVDTBWJ,36.41012909999972,36.443534199999704,36.443534199999704,36.49343950000002,,,,,,,,,,,,,,,,,,,,,,422927,1,60,en,2024-11-26_16h06.42.315,AB,2023.1.3,59.963757904713,
single,dual,CIRCUS,WINDOWS,8888888.0,10,7,3,j,j,0,0,0,0,0,0,2,2,2,,,,,,,,,0,0,0,0,,,,,,,,,,,,,,,,,,,,,,,,36.49343950000002,36.52681219999977,36.52681219999977,36.5767735999998,XVDTBWJ,36.5767735999998,36.610377799999696,36.610377799999696,36.660230699999374,,,,,,,,,,,,,422927,1,60,en,2024-11-26_16h06.42.315,AB,2023.1.3,59.963757904713,
single,dual,CIRCUS,WINDOWS,8888888.0,10,7,3,j,j,0,0,0,0,0,0,2,2,2,,,,,,,,,1,0,1,0,,,,,,,,,,,,,,,,,,,,,,,,,,,,SMKYPBQ,36.660230699999374,36.693481999999676,36.693481999999676,36.743449300000066,,,,,,,,,,,,,422927,1,60,en,2024-11-26_16h06.42.315,AB,2023.1.3,59.963757904713,
single,dual,CIRCUS,WINDOWS,8888888.0,10,7,3,j,j,0,0,0,0,0,0,2,2,2,,,,,,,,,2,0,2,0,,,,,,,,,,,,,,,,,,,,,,,,,,,,TGQSCKF,36.743449300000066,36.77697189999981,36.77697189999981,36.826805599999716,,,,,,,,,,,,,422927,1,60,en,2024-11-26_16h06.42.315,AB,2023.1.3,59.963757904713,
single,dual,CIRCUS,WINDOWS,8888888.0,10,7,3,j,j,0,0,0,0,0,0,2,2,2,,,,,,,,,,,,,,,,,,,,,,,,,,,,,,,,,,,,,,,,,,,,,None,0,36.826805599999716,37.81025219999992,37.81025219999992,37.82683719999932,39.81033599999955,39.81033599999955,39.81033599999955,40.81043399999999,None,0,422927,1,60,en,2024-11-26_16h06.42.315,AB,2023.1.3,59.963757904713,
single,dual,CAT,XCHURCH,6666666.0,7,3,10,j,j,0,0,0,0,0,0,3,3,3,0,0,0,0,,,,,,,,,,,,,,40.81043399999999,41.81045779999931,41.81045779999931,42.81054260000019,PSBCVDG,42.81054260000019,42.843849099999716,42.843849099999716,42.89382829999977,,,,,,,,,,,,,,,,,,,,,,,,,,,,,,,422927,1,60,en,2024-11-26_16h06.42.315,AB,2023.1.3,59.963757904713,
single,dual,CAT,XCHURCH,6666666.0,7,3,10,j,j,0,0,0,0,0,0,3,3,3,1,0,1,0,,,,,,,,,,,,,,,,,,GPWVBYN,42.89382829999977,42.92717399999947,42.92717399999947,42.977175399999396,,,,,,,,,,,,,,,,,,,,,,,,,,,,,,,422927,1,60,en,2024-11-26_16h06.42.315,AB,2023.1.3,59.963757904713,
single,dual,CAT,XCHURCH,6666666.0,7,3,10,j,j,0,0,0,0,0,0,3,3,3,2,0,2,0,,,,,,,,,,,,,,,,,,JNWMHSZ,42.977175399999396,43.010502299999644,43.010502299999644,43.06050479999976,,,,,,,,,,,,,,,,,,,,,,,,,,,,,,,422927,1,60,en,2024-11-26_16h06.42.315,AB,2023.1.3,59.963757904713,
single,dual,CAT,XCHURCH,6666666.0,7,3,10,j,j,0,0,0,0,0,0,3,3,3,3,0,3,0,,,,,,,,,,,,,,,,,,RNWFHLX,43.06050479999976,43.09384349999982,43.09384349999982,43.143825000000106,,,,,,,,,,,,,,,,,,,,,,,,,,,,,,,422927,1,60,en,2024-11-26_16h06.42.315,AB,2023.1.3,59.963757904713,
single,dual,CAT,XCHURCH,6666666.0,7,3,10,j,j,0,0,0,0,0,0,3,3,3,4,0,4,0,,,,,,,,,,,,,,,,,,CHDMZWR,43.143825000000106,43.177214999999705,43.177214999999705,43.227149700000155,,,,,,,,,,,,,,,,,,,,,,,,,,,,,,,422927,1,60,en,2024-11-26_16h06.42.315,AB,2023.1.3,59.963757904713,
single,dual,CAT,XCHURCH,6666666.0,7,3,10,j,j,0,0,0,0,0,0,3,3,3,5,0,5,0,,,,,,,,,,,,,,,,,,QPGWNKL,43.227149700000155,43.26072529999965,43.26072529999965,43.310514599999806,,,,,,,,,,,,,,,,,,,,,,,,,,,,,,,422927,1,60,en,2024-11-26_16h06.42.315,AB,2023.1.3,59.963757904713,
single,dual,CAT,XCHURCH,6666666.0,7,3,10,j,j,0,0,0,0,0,0,3,3,3,,,,,0,0,0,0,,,,,,,,,,,,,,,,,,,43.310514599999806,43.34382759999971,43.34382759999971,43.393858499999624,HZJWPFM,43.393858499999624,43.42720310000004,43.42720310000004,43.47718480000003,,,,,,,,,,,,,,,,,,,,,,422927,1,60,en,2024-11-26_16h06.42.315,AB,2023.1.3,59.963757904713,
single,dual,CAT,XCHURCH,6666666.0,7,3,10,j,j,0,0,0,0,0,0,3,3,3,,,,,1,0,1,0,,,,,,,,,,,,,,,,,,,,,,,MWCVDBK,43.47718480000003,43.510527999999795,43.510527999999795,43.560539199999766,,,,,,,,,,,,,,,,,,,,,,422927,1,60,en,2024-11-26_16h06.42.315,AB,2023.1.3,59.963757904713,
single,dual,CAT,XCHURCH,6666666.0,7,3,10,j,j,0,0,0,0,0,0,3,3,3,,,,,,,,,0,0,0,0,,,,,,,,,,,,,,,,,,,,,,,,43.560539199999766,43.593821299999945,43.593821299999945,43.643943000000036,MWCVDBK,43.643943000000036,43.67732909999995,43.67732909999995,43.727197199999864,,,,,,,,,,,,,422927,1,60,en,2024-11-26_16h06.42.315,AB,2023.1.3,59.963757904713,
single,dual,CAT,XCHURCH,6666666.0,7,3,10,j,j,0,0,0,0,0,0,3,3,3,,,,,,,,,1,0,1,0,,,,,,,,,,,,,,,,,,,,,,,,,,,,GWRYPVQ,43.727197199999864,43.76053569999931,43.76053569999931,43.810515099999975,,,,,,,,,,,,,422927,1,60,en,2024-11-26_16h06.42.315,AB,2023.1.3,59.963757904713,
single,dual,CAT,XCHURCH,6666666.0,7,3,10,j,j,0,0,0,0,0,0,3,3,3,,,,,,,,,2,0,2,0,,,,,,,,,,,,,,,,,,,,,,,,,,,,MCKSTRN,43.810515099999975,43.843869899999845,43.843869899999845,43.89386860000013,,,,,,,,,,,,,422927,1,60,en,2024-11-26_16h06.42.315,AB,2023.1.3,59.963757904713,
single,dual,CAT,XCHURCH,6666666.0,7,3,10,j,j,0,0,0,0,0,0,3,3,3,,,,,,,,,3,0,3,0,,,,,,,,,,,,,,,,,,,,,,,,,,,,VCTWJBR,43.89386860000013,43.92717290000019,43.92717290000019,43.97724239999934,,,,,,,,,,,,,422927,1,60,en,2024-11-26_16h06.42.315,AB,2023.1.3,59.963757904713,
single,dual,CAT,XCHURCH,6666666.0,7,3,10,j,j,0,0,0,0,0,0,3,3,3,,,,,,,,,4,0,4,0,,,,,,,,,,,,,,,,,,,,,,,,,,,,NWXSCVT,43.97724239999934,44.010529099999985,44.010529099999985,44.06056699999954,,,,,,,,,,,,,422927,1,60,en,2024-11-26_16h06.42.315,AB,2023.1.3,59.963757904713,
single,dual,CAT,XCHURCH,6666666.0,7,3,10,j,j,0,0,0,0,0,0,3,3,3,,,,,,,,,5,0,5,0,,,,,,,,,,,,,,,,,,,,,,,,,,,,DCRLZWY,44.06056699999954,44.09403250000014,44.09403250000014,44.143854299999475,,,,,,,,,,,,,422927,1,60,en,2024-11-26_16h06.42.315,AB,2023.1.3,59.963757904713,
single,dual,CAT,XCHURCH,6666666.0,7,3,10,j,j,0,0,0,0,0,0,3,3,3,,,,,,,,,6,0,6,0,,,,,,,,,,,,,,,,,,,,,,,,,,,,GYHTMJW,44.143854299999475,44.17724469999939,44.17724469999939,44.22723369999949,,,,,,,,,,,,,422927,1,60,en,2024-11-26_16h06.42.315,AB,2023.1.3,59.963757904713,
single,dual,CAT,XCHURCH,6666666.0,7,3,10,j,j,0,0,0,0,0,0,3,3,3,,,,,,,,,7,0,7,0,,,,,,,,,,,,,,,,,,,,,,,,,,,,XGZBPNQ,44.22723369999949,44.26052009999967,44.26052009999967,44.31056970000009,,,,,,,,,,,,,422927,1,60,en,2024-11-26_16h06.42.315,AB,2023.1.3,59.963757904713,
single,dual,CAT,XCHURCH,6666666.0,7,3,10,j,j,0,0,0,0,0,0,3,3,3,,,,,,,,,8,0,8,0,,,,,,,,,,,,,,,,,,,,,,,,,,,,NFWJPTG,44.31056970000009,44.34390970000004,44.34390970000004,44.39395269999932,,,,,,,,,,,,,422927,1,60,en,2024-11-26_16h06.42.315,AB,2023.1.3,59.963757904713,
single,dual,CAT,XCHURCH,6666666.0,7,3,10,j,j,0,0,0,0,0,0,3,3,3,,,,,,,,,9,0,9,0,,,,,,,,,,,,,,,,,,,,,,,,,,,,TFJGLDX,44.39395269999932,44.42729869999948,44.42729869999948,44.477390099999866,,,,,,,,,,,,,422927,1,60,en,2024-11-26_16h06.42.315,AB,2023.1.3,59.963757904713,
single,dual,CAT,XCHURCH,6666666.0,7,3,10,j,j,0,0,0,0,0,0,3,3,3,,,,,,,,,,,,,,,,,,,,,,,,,,,,,,,,,,,,,,,,,,,,,None,0,44.477390099999866,45.46062720000009,45.46062720000009,45.47726710000006,47.46088289999989,47.46088289999989,47.46088289999989,48.46082500000011,None,0,422927,1,60,en,2024-11-26_16h06.42.315,AB,2023.1.3,59.963757904713,
single,dual,TASTE,XSMELLX,8888888.0,7,1,12,j,f,1,0,0,0,0,0,4,4,4,0,0,0,0,,,,,,,,,,,,,,48.46082500000011,49.460937199999535,49.460937199999535,50.46089099999972,LNYXGCH,50.46089099999972,50.49422549999963,50.49422549999963,50.544253000000026,,,,,,,,,,,,,,,,,,,,,,,,,,,,,,,422927,1,60,en,2024-11-26_16h06.42.315,AB,2023.1.3,59.963757904713,
single,dual,TASTE,XSMELLX,8888888.0,7,1,12,j,f,1,0,0,0,0,0,4,4,4,1,0,1,0,,,,,,,,,,,,,,,,,,PZJFTMG,50.544253000000026,50.57755879999968,50.57755879999968,50.62761330000012,,,,,,,,,,,,,,,,,,,,,,,,,,,,,,,422927,1,60,en,2024-11-26_16h06.42.315,AB,2023.1.3,59.963757904713,
single,dual,TASTE,XSMELLX,8888888.0,7,1,12,j,f,1,0,0,0,0,0,4,4,4,2,0,2,0,,,,,,,,,,,,,,,,,,JNQSCRY,50.62761330000012,50.661321900000075,50.661321900000075,50.71091149999938,,,,,,,,,,,,,,,,,,,,,,,,,,,,,,,422927,1,60,en,2024-11-26_16h06.42.315,AB,2023.1.3,59.963757904713,
single,dual,TASTE,XSMELLX,8888888.0,7,1,12,j,f,1,0,0,0,0,0,4,4,4,3,0,3,0,,,,,,,,,,,,,,,,,,SQCYJWD,50.71091149999938,50.744316599999365,50.744316599999365,50.79428619999999,,,,,,,,,,,,,,,,,,,,,,,,,,,,,,,422927,1,60,en,2024-11-26_16h06.42.315,AB,2023.1.3,59.963757904713,
single,dual,TASTE,XSMELLX,8888888.0,7,1,12,j,f,1,0,0,0,0,0,4,4,4,4,0,4,0,,,,,,,,,,,,,,,,,,GTMVFYP,50.79428619999999,50.82794329999979,50.82794329999979,50.877673899999536,,,,,,,,,,,,,,,,,,,,,,,,,,,,,,,422927,1,60,en,2024-11-26_16h06.42.315,AB,2023.1.3,59.963757904713,
single,dual,TASTE,XSMELLX,8888888.0,7,1,12,j,f,1,0,0,0,0,0,4,4,4,5,0,5,0,,,,,,,,,,,,,,,,,,CWTJVFP,50.877673899999536,50.91104379999979,50.91104379999979,50.961019999999735,,,,,,,,,,,,,,,,,,,,,,,,,,,,,,,422927,1,60,en,2024-11-26_16h06.42.315,AB,2023.1.3,59.963757904713,
single,dual,TASTE,XSMELLX,8888888.0,7,1,12,j,f,1,0,0,0,0,0,4,4,4,,,,,0,0,0,0,,,,,,,,,,,,,,,,,,,50.961019999999735,50.99443209999936,50.99443209999936,51.04429549999986,,,,,,,,,,,,,,,,,,,,,,,,,,,422927,1,60,en,2024-11-26_16h06.42.315,AB,2023.1.3,59.963757904713,
single,dual,TASTE,XSMELLX,8888888.0,7,1,12,j,f,1,0,0,0,0,0,4,4,4,,,,,,,,,0,0,0,0,,,,,,,,,,,,,,,,,,,,,,,,51.04429549999986,51.07763429999977,51.07763429999977,51.12761179999961,SBTGRDP,51.12761179999961,51.16100749999987,51.16100749999987,51.2110047999995,,,,,,,,,,,,,422927,1,60,en,2024-11-26_16h06.42.315,AB,2023.1.3,59.963757904713,
single,dual,TASTE,XSMELLX,8888888.0,7,1,12,j,f,1,0,0,0,0,0,4,4,4,,,,,,,,,1,0,1,0,,,,,,,,,,,,,,,,,,,,,,,,,,,,THZWLKG,51.2110047999995,51.244269099999656,51.244269099999656,51.29425489999994,,,,,,,,,,,,,422927,1,60,en,2024-11-26_16h06.42.315,AB,2023.1.3,59.963757904713,
single,dual,TASTE,XSMELLX,8888888.0,7,1,12,j,f,1,0,0,0,0,0,4,4,4,,,,,,,,,2,0,2,0,,,,,,,,,,,,,,,,,,,,,,,,,,,,LYRJVZN,51.29425489999994,51.327865700000075,51.327865700000075,51.377617799999825,,,,,,,,,,,,,422927,1,60,en,2024-11-26_16h06.42.315,AB,2023.1.3,59.963757904713,
single,dual,TASTE,XSMELLX,8888888.0,7,1,12,j,f,1,0,0,0,0,0,4,4,4,,,,,,,,,3,0,3,0,,,,,,,,,,,,,,,,,,,,,,,,,,,,FWVPSZT,51.377617799999825,51.41096070000003,51.41096070000003,51.461018999999396,,,,,,,,,,,,,422927,1,60,en,2024-11-26_16h06.42.315,AB,2023.1.3,59.963757904713,
single,dual,TASTE,XSMELLX,8888888.0,7,1,12,j,f,1,0,0,0,0,0,4,4,4,,,,,,,,,4,0,4,0,,,,,,,,,,,,,,,,,,,,,,,,,,,,LGKPHCJ,51.461018999999396,51.494300100000146,51.494300100000146,51.54430609999963,,,,,,,,,,,,,422927,1,60,en,2024-11-26_16h06.42.315,AB,2023.1.3,59.963757904713,
single,dual,TASTE,XSMELLX,8888888.0,7,1,12,j,f,1,0,0,0,0,0,4,4,4,,,,,,,,,5,0,5,0,,,,,,,,,,,,,,,,,,,,,,,,,,,,HPGTWKV,51.54430609999963,51.57763139999952,51.57763139999952,51.62769909999952,,,,,,,,,,,,,422927,1,60,en,2024-11-26_16h06.42.315,AB,2023.1.3,59.963757904713,
single,dual,TASTE,XSMELLX,8888888.0,7,1,12,j,f,1,0,0,0,0,0,4,4,4,,,,,,,,,6,0,6,0,,,,,,,,,,,,,,,,,,,,,,,,,,,,DYSNXTW,51.62769909999952,51.661091699999815,51.661091699999815,51.71100010000009,,,,,,,,,,,,,422927,1,60,en,2024-11-26_16h06.42.315,AB,2023.1.3,59.963757904713,
single,dual,TASTE,XSMELLX,8888888.0,7,1,12,j,f,1,0,0,0,0,0,4,4,4,,,,,,,,,7,0,7,0,,,,,,,,,,,,,,,,,,,,,,,,,,,,CYVWBHS,51.71100010000009,51.7442747999994,51.7442747999994,51.794330400000035,,,,,,,,,,,,,422927,1,60,en,2024-11-26_16h06.42.315,AB,2023.1.3,59.963757904713,
single,dual,TASTE,XSMELLX,8888888.0,7,1,12,j,f,1,0,0,0,0,0,4,4,4,,,,,,,,,8,0,8,0,,,,,,,,,,,,,,,,,,,,,,,,,,,,BMGWYJK,51.794330400000035,51.82765409999956,51.82765409999956,51.87773010000001,,,,,,,,,,,,,422927,1,60,en,2024-11-26_16h06.42.315,AB,2023.1.3,59.963757904713,
single,dual,TASTE,XSMELLX,8888888.0,7,1,12,j,f,1,0,0,0,0,0,4,4,4,,,,,,,,,9,0,9,0,,,,,,,,,,,,,,,,,,,,,,,,,,,,PWNZMBF,51.87773010000001,51.91099049999957,51.91099049999957,51.961063199999444,,,,,,,,,,,,,422927,1,60,en,2024-11-26_16h06.42.315,AB,2023.1.3,59.963757904713,
single,dual,TASTE,XSMELLX,8888888.0,7,1,12,j,f,1,0,0,0,0,0,4,4,4,,,,,,,,,10,0,10,0,,,,,,,,,,,,,,,,,,,,,,,,,,,,HSXNKQJ,51.961063199999444,51.994287299999996,51.994287299999996,52.04428629999984,,,,,,,,,,,,,422927,1,60,en,2024-11-26_16h06.42.315,AB,2023.1.3,59.963757904713,
single,dual,TASTE,XSMELLX,8888888.0,7,1,12,j,f,1,0,0,0,0,0,4,4,4,,,,,,,,,11,0,11,0,,,,,,,,,,,,,,,,,,,,,,,,,,,,MWDFCTV,52.04428629999984,52.077655299999606,52.077655299999606,52.12787369999933,,,,,,,,,,,,,422927,1,60,en,2024-11-26_16h06.42.315,AB,2023.1.3,59.963757904713,
single,dual,TASTE,XSMELLX,8888888.0,7,1,12,j,f,1,0,0,0,0,0,4,4,4,,,,,,,,,,,,,,,,,,,,,,,,,,,,,,,,,,,,,,,,,,,,,None,0,52.12787369999933,53.11128599999938,53.11128599999938,53.12770599999931,55.11113899999964,55.11113899999964,55.11113899999964,56.11123749999933,None,0,422927,1,60,en,2024-11-26_16h06.42.315,AB,2023.1.3,59.963757904713,
single,dual,BED,XLATINX,9999999.0,7,1,12,f,j,0,0,0,0,0,0,5,5,5,0,0,0,0,,,,,,,,,,,,,,56.11123749999933,57.111587899999904,57.111587899999904,58.11131039999964,KGTFSHB,58.11131039999964,58.14465800000016,58.14465800000016,58.194675099999586,,,,,,,,,,,,,,,,,,,,,,,,,,,,,,,422927,1,60,en,2024-11-26_16h06.42.315,AB,2023.1.3,59.963757904713,
single,dual,BED,XLATINX,9999999.0,7,1,12,f,j,0,0,0,0,0,0,5,5,5,1,0,1,0,,,,,,,,,,,,,,,,,,FTLKJVS,58.194675099999586,58.22821329999988,58.22821329999988,58.27802269999938,,,,,,,,,,,,,,,,,,,,,,,,,,,,,,,422927,1,60,en,2024-11-26_16h06.42.315,AB,2023.1.3,59.963757904713,
single,dual,BED,XLATINX,9999999.0,7,1,12,f,j,0,0,0,0,0,0,5,5,5,2,0,2,0,,,,,,,,,,,,,,,,,,LMTCYSF,58.27802269999938,58.311367399999654,58.311367399999654,58.36136699999952,,,,,,,,,,,,,,,,,,,,,,,,,,,,,,,422927,1,60,en,2024-11-26_16h06.42.315,AB,2023.1.3,59.963757904713,
single,dual,BED,XLATINX,9999999.0,7,1,12,f,j,0,0,0,0,0,0,5,5,5,3,0,3,0,,,,,,,,,,,,,,,,,,QCPRMKH,58.36136699999952,58.394822000000204,58.394822000000204,58.44468939999933,,,,,,,,,,,,,,,,,,,,,,,,,,,,,,,422927,1,60,en,2024-11-26_16h06.42.315,AB,2023.1.3,59.963757904713,
single,dual,BED,XLATINX,9999999.0,7,1,12,f,j,0,0,0,0,0,0,5,5,5,4,0,4,0,,,,,,,,,,,,,,,,,,YBPHZRJ,58.44468939999933,58.47812209999938,58.47812209999938,58.52816900000016,,,,,,,,,,,,,,,,,,,,,,,,,,,,,,,422927,1,60,en,2024-11-26_16h06.42.315,AB,2023.1.3,59.963757904713,
single,dual,BED,XLATINX,9999999.0,7,1,12,f,j,0,0,0,0,0,0,5,5,5,5,0,5,0,,,,,,,,,,,,,,,,,,ZLNBFRP,58.52816900000016,58.5613943999997,58.5613943999997,58.61145529999976,,,,,,,,,,,,,,,,,,,,,,,,,,,,,,,422927,1,60,en,2024-11-26_16h06.42.315,AB,2023.1.3,59.963757904713,
single,dual,BED,XLATINX,9999999.0,7,1,12,f,j,0,0,0,0,0,0,5,5,5,,,,,0,0,0,0,,,,,,,,,,,,,,,,,,,58.61145529999976,58.64478109999982,58.64478109999982,58.694707599999674,,,,,,,,,,,,,,,,,,,,,,,,,,,422927,1,60,en,2024-11-26_16h06.42.315,AB,2023.1.3,59.963757904713,
single,dual,BED,XLATINX,9999999.0,7,1,12,f,j,0,0,0,0,0,0,5,5,5,,,,,,,,,0,0,0,0,,,,,,,,,,,,,,,,,,,,,,,,58.694707599999674,58.72823939999944,58.72823939999944,58.77804229999947,XLCVDPZ,58.77804229999947,58.811776599999575,58.811776599999575,58.86139229999935,,,,,,,,,,,,,422927,1,60,en,2024-11-26_16h06.42.315,AB,2023.1.3,59.963757904713,
single,dual,BED,XLATINX,9999999.0,7,1,12,f,j,0,0,0,0,0,0,5,5,5,,,,,,,,,1,0,1,0,,,,,,,,,,,,,,,,,,,,,,,,,,,,SKNHZJL,58.86139229999935,58.894693399999596,58.894693399999596,58.944723599999634,,,,,,,,,,,,,422927,1,60,en,2024-11-26_16h06.42.315,AB,2023.1.3,59.963757904713,
single,dual,BED,XLATINX,9999999.0,7,1,12,f,j,0,0,0,0,0,0,5,5,5,,,,,,,,,2,0,2,0,,,,,,,,,,,,,,,,,,,,,,,,,,,,QKLGBCW,58.944723599999634,58.978134500000124,58.978134500000124,59.028032999999596,,,,,,,,,,,,,422927,1,60,en,2024-11-26_16h06.42.315,AB,2023.1.3,59.963757904713,
single,dual,BED,XLATINX,9999999.0,7,1,12,f,j,0,0,0,0,0,0,5,5,5,,,,,,,,,3,0,3,0,,,,,,,,,,,,,,,,,,,,,,,,,,,,QHLWKFR,59.028032999999596,59.06144559999939,59.06144559999939,59.111421300000075,,,,,,,,,,,,,422927,1,60,en,2024-11-26_16h06.42.315,AB,2023.1.3,59.963757904713,
single,dual,BED,XLATINX,9999999.0,7,1,12,f,j,0,0,0,0,0,0,5,5,5,,,,,,,,,4,0,4,0,,,,,,,,,,,,,,,,,,,,,,,,,,,,KBXLPQD,59.111421300000075,59.145046300000104,59.145046300000104,59.194752499999595,,,,,,,,,,,,,422927,1,60,en,2024-11-26_16h06.42.315,AB,2023.1.3,59.963757904713,
single,dual,BED,XLATINX,9999999.0,7,1,12,f,j,0,0,0,0,0,0,5,5,5,,,,,,,,,5,0,5,0,,,,,,,,,,,,,,,,,,,,,,,,,,,,BRDYFKZ,59.194752499999595,59.228076899999905,59.228076899999905,59.27805829999943,,,,,,,,,,,,,422927,1,60,en,2024-11-26_16h06.42.315,AB,2023.1.3,59.963757904713,
single,dual,BED,XLATINX,9999999.0,7,1,12,f,j,0,0,0,0,0,0,5,5,5,,,,,,,,,6,0,6,0,,,,,,,,,,,,,,,,,,,,,,,,,,,,XNBHTMW,59.27805829999943,59.311418799999956,59.311418799999956,59.36147819999951,,,,,,,,,,,,,422927,1,60,en,2024-11-26_16h06.42.315,AB,2023.1.3,59.963757904713,
single,dual,BED,XLATINX,9999999.0,7,1,12,f,j,0,0,0,0,0,0,5,5,5,,,,,,,,,7,0,7,0,,,,,,,,,,,,,,,,,,,,,,,,,,,,RSKFVQP,59.36147819999951,59.394791099999566,59.394791099999566,59.444727899999634,,,,,,,,,,,,,422927,1,60,en,2024-11-26_16h06.42.315,AB,2023.1.3,59.963757904713,
single,dual,BED,XLATINX,9999999.0,7,1,12,f,j,0,0,0,0,0,0,5,5,5,,,,,,,,,8,0,8,0,,,,,,,,,,,,,,,,,,,,,,,,,,,,DNRXQLS,59.444727899999634,59.478098300000056,59.478098300000056,59.528585199999725,,,,,,,,,,,,,422927,1,60,en,2024-11-26_16h06.42.315,AB,2023.1.3,59.963757904713,
single,dual,BED,XLATINX,9999999.0,7,1,12,f,j,0,0,0,0,0,0,5,5,5,,,,,,,,,9,0,9,0,,,,,,,,,,,,,,,,,,,,,,,,,,,,KDTYLWN,59.528585199999725,59.561419199999364,59.561419199999364,59.61144189999959,,,,,,,,,,,,,422927,1,60,en,2024-11-26_16h06.42.315,AB,2023.1.3,59.963757904713,
single,dual,BED,XLATINX,9999999.0,7,1,12,f,j,0,0,0,0,0,0,5,5,5,,,,,,,,,10,0,10,0,,,,,,,,,,,,,,,,,,,,,,,,,,,,XKHJYQW,59.61144189999959,59.64473519999956,59.64473519999956,59.69472709999991,,,,,,,,,,,,,422927,1,60,en,2024-11-26_16h06.42.315,AB,2023.1.3,59.963757904713,
single,dual,BED,XLATINX,9999999.0,7,1,12,f,j,0,0,0,0,0,0,5,5,5,,,,,,,,,11,0,11,0,,,,,,,,,,,,,,,,,,,,,,,,,,,,DRLNSGF,59.69472709999991,59.728068899999926,59.728068899999926,59.77809429999979,,,,,,,,,,,,,422927,1,60,en,2024-11-26_16h06.42.315,AB,2023.1.3,59.963757904713,
single,dual,BED,XLATINX,9999999.0,7,1,12,f,j,0,0,0,0,0,0,5,5,5,,,,,,,,,,,,,,,,,,,,,,,,,,,,,,,,,,,,,,,,,,,,,None,0,59.77809429999979,60.76182830000016,60.76182830000016,60.778190600000016,62.7615679999999,62.7615679999999,62.7615679999999,63.76161039999988,None,0,422927,1,60,en,2024-11-26_16h06.42.315,AB,2023.1.3,59.963757904713,
single,dual,HEAD,XXSWIMX,3333333.0,7,3,10,f,j,0,0,0,0,0,0,6,6,6,0,0,0,0,,,,,,,,,,,,,,63.76161039999988,64.76183829999991,64.76183829999991,65.7617567999996,DPWGJFR,65.7617567999996,65.7951880999999,65.7951880999999,65.84516389999953,,,,,,,,,,,,,,,,,,,,,,,,,,,,,,,422927,1,60,en,2024-11-26_16h06.42.315,AB,2023.1.3,59.963757904713,
single,dual,HEAD,XXSWIMX,3333333.0,7,3,10,f,j,0,0,0,0,0,0,6,6,6,1,0,1,0,,,,,,,,,,,,,,,,,,NXJPBTY,65.84516389999953,65.87847899999997,65.87847899999997,65.92850379999982,,,,,,,,,,,,,,,,,,,,,,,,,,,,,,,422927,1,60,en,2024-11-26_16h06.42.315,AB,2023.1.3,59.963757904713,
single,dual,HEAD,XXSWIMX,3333333.0,7,3,10,f,j,0,0,0,0,0,0,6,6,6,2,0,2,0,,,,,,,,,,,,,,,,,,YCGTRZK,65.92850379999982,65.96190079999997,65.96190079999997,66.01182160000008,,,,,,,,,,,,,,,,,,,,,,,,,,,,,,,422927,1,60,en,2024-11-26_16h06.42.315,AB,2023.1.3,59.963757904713,
single,dual,HEAD,XXSWIMX,3333333.0,7,3,10,f,j,0,0,0,0,0,0,6,6,6,3,0,3,0,,,,,,,,,,,,,,,,,,JRBFPNK,66.01182160000008,66.0450836,66.0450836,66.09513689999949,,,,,,,,,,,,,,,,,,,,,,,,,,,,,,,422927,1,60,en,2024-11-26_16h06.42.315,AB,2023.1.3,59.963757904713,
single,dual,HEAD,XXSWIMX,3333333.0,7,3,10,f,j,0,0,0,0,0,0,6,6,6,4,0,4,0,,,,,,,,,,,,,,,,,,JDPLFNY,66.09513689999949,66.12846179999997,66.12846179999997,66.17842310000015,,,,,,,,,,,,,,,,,,,,,,,,,,,,,,,422927,1,60,en,2024-11-26_16h06.42.315,AB,2023.1.3,59.963757904713,
single,dual,HEAD,XXSWIMX,3333333.0,7,3,10,f,j,0,0,0,0,0,0,6,6,6,5,0,5,0,,,,,,,,,,,,,,,,,,TXKMLCN,66.17842310000015,66.21186519999992,66.21186519999992,66.26179700000012,,,,,,,,,,,,,,,,,,,,,,,,,,,,,,,422927,1,60,en,2024-11-26_16h06.42.315,AB,2023.1.3,59.963757904713,
single,dual,HEAD,XXSWIMX,3333333.0,7,3,10,f,j,0,0,0,0,0,0,6,6,6,,,,,0,0,0,0,,,,,,,,,,,,,,,,,,,66.26179700000012,66.29544949999945,66.29544949999945,66.34510489999957,QKWSMPC,66.34510489999957,66.37858929999948,66.37858929999948,66.4285246999998,,,,,,,,,,,,,,,,,,,,,,422927,1,60,en,2024-11-26_16h06.42.315,AB,2023.1.3,59.963757904713,
single,dual,HEAD,XXSWIMX,3333333.0,7,3,10,f,j,0,0,0,0,0,0,6,6,6,,,,,1,0,1,0,,,,,,,,,,,,,,,,,,,,,,,KDMZQGS,66.4285246999998,66.46175609999955,66.46175609999955,66.5117639,,,,,,,,,,,,,,,,,,,,,,422927,1,60,en,2024-11-26_16h06.42.315,AB,2023.1.3,59.963757904713,
single,dual,HEAD,XXSWIMX,3333333.0,7,3,10,f,j,0,0,0,0,0,0,6,6,6,,,,,,,,,0,0,0,0,,,,,,,,,,,,,,,,,,,,,,,,66.5117639,66.54527849999977,66.54527849999977,66.59514380000019,KDMZQGS,66.59514380000019,66.6285971999996,66.6285971999996,66.67849429999933,,,,,,,,,,,,,422927,1,60,en,2024-11-26_16h06.42.315,AB,2023.1.3,59.963757904713,
single,dual,HEAD,XXSWIMX,3333333.0,7,3,10,f,j,0,0,0,0,0,0,6,6,6,,,,,,,,,1,0,1,0,,,,,,,,,,,,,,,,,,,,,,,,,,,,SZWQHML,66.67849429999933,66.71180699999968,66.71180699999968,66.7617894999994,,,,,,,,,,,,,422927,1,60,en,2024-11-26_16h06.42.315,AB,2023.1.3,59.963757904713,
single,dual,HEAD,XXSWIMX,3333333.0,7,3,10,f,j,0,0,0,0,0,0,6,6,6,,,,,,,,,2,0,2,0,,,,,,,,,,,,,,,,,,,,,,,,,,,,LSVWYTH,66.7617894999994,66.79535759999999,66.79535759999999,66.84520530000009,,,,,,,,,,,,,422927,1,60,en,2024-11-26_16h06.42.315,AB,2023.1.3,59.963757904713,
single,dual,HEAD,XXSWIMX,3333333.0,7,3,10,f,j,0,0,0,0,0,0,6,6,6,,,,,,,,,3,0,3,0,,,,,,,,,,,,,,,,,,,,,,,,,,,,JKDZFWB,66.84520530000009,66.87847749999946,66.87847749999946,66.92851689999952,,,,,,,,,,,,,422927,1,60,en,2024-11-26_16h06.42.315,AB,2023.1.3,59.963757904713,
single,dual,HEAD,XXSWIMX,3333333.0,7,3,10,f,j,0,0,0,0,0,0,6,6,6,,,,,,,,,4,0,4,0,,,,,,,,,,,,,,,,,,,,,,,,,,,,JQLKSYH,66.92851689999952,66.96190299999944,66.96190299999944,67.0117964000001,,,,,,,,,,,,,422927,1,60,en,2024-11-26_16h06.42.315,AB,2023.1.3,59.963757904713,
single,dual,HEAD,XXSWIMX,3333333.0,7,3,10,f,j,0,0,0,0,0,0,6,6,6,,,,,,,,,5,0,5,0,,,,,,,,,,,,,,,,,,,,,,,,,,,,MQPDFRX,67.0117964000001,67.0451892000001,67.0451892000001,67.0951301999994,,,,,,,,,,,,,422927,1,60,en,2024-11-26_16h06.42.315,AB,2023.1.3,59.963757904713,
single,dual,HEAD,XXSWIMX,3333333.0,7,3,10,f,j,0,0,0,0,0,0,6,6,6,,,,,,,,,6,0,6,0,,,,,,,,,,,,,,,,,,,,,,,,,,,,LFXHSPV,67.0951301999994,67.12853499999983,67.12853499999983,67.17848479999975,,,,,,,,,,,,,422927,1,60,en,2024-11-26_16h06.42.315,AB,2023.1.3,59.963757904713,
single,dual,HEAD,XXSWIMX,3333333.0,7,3,10,f,j,0,0,0,0,0,0,6,6,6,,,,,,,,,7,0,7,0,,,,,,,,,,,,,,,,,,,,,,,,,,,,TFSZGXN,67.17848479999975,67.2121175000002,67.2121175000002,67.26198199999999,,,,,,,,,,,,,422927,1,60,en,2024-11-26_16h06.42.315,AB,2023.1.3,59.963757904713,
single,dual,HEAD,XXSWIMX,3333333.0,7,3,10,f,j,0,0,0,0,0,0,6,6,6,,,,,,,,,8,0,8,0,,,,,,,,,,,,,,,,,,,,,,,,,,,,JLGXQYP,67.26198199999999,67.29519419999997,67.29519419999997,67.3451772999997,,,,,,,,,,,,,422927,1,60,en,2024-11-26_16h06.42.315,AB,2023.1.3,59.963757904713,
single,dual,HEAD,XXSWIMX,3333333.0,7,3,10,f,j,0,0,0,0,0,0,6,6,6,,,,,,,,,9,0,9,0,,,,,,,,,,,,,,,,,,,,,,,,,,,,VGRQLWF,67.3451772999997,67.37888219999968,67.37888219999968,67.42849569999998,,,,,,,,,,,,,422927,1,60,en,2024-11-26_16h06.42.315,AB,2023.1.3,59.963757904713,
,,,,,,,,,,,,,,,,,,,,,,,,,,,,,,,,,,,,,,,,,,,,,,,,,,,,,,,,,,,,,,,None,0,67.42849569999998,68.41187829999944,68.41187829999944,68.42863549999947,70.41225829999985,70.41225829999985,70.41225829999985,,,,,,,,,,,,
