task1,task2,T0,T2,T1,lagT0,lagT1,lagT2,responseT1,responseT2,related,dist,block.thisRepN,block.thisTrialN,block.thisN,block.thisIndex,trial.thisRepN,trial.thisTrialN,trial.thisN,trial.thisIndex,trials_T0_context.thisRepN,trials_T0_context.thisTrialN,trials_T0_context.thisN,trials_T0_context.thisIndex,trials_T1.thisRepN,trials_T1.thisTrialN,trials_T1.thisN,trials_T1.thisIndex,trials_T2.thisRepN,trials_T2.thisTrialN,trials_T2.thisN,trials_T2.thisIndex,thisRow.t,notes,instructions.started,text_instructions.started,key_resp.started,instructions.stopped,key_resp.keys,key_resp.rt,key_resp.duration,settings.started,settings.stopped,T0_context.started,context_word.started,blankContext.started,context_word.stopped,blankContext.stopped,T0_context.stopped,distractors_T0_T2.started,text_distractors_2.started,distractors_T0_T2.stopped,T1_number.started,text_T1.started,T1_number.stopped,distractors_T1.started,text_distractors.started,distractors_T1.stopped,T2_probe.started,text_T2.started,T2_probe.stopped,Ask_T1.started,Ask_T1.stopped,key_resp_T1.keys,key_resp_T1.corr,Ask_T2.started,blankT2_1.started,text_T2ask.started,key_resp_T2.started,blankT2_1.stopped,Ask_T2.stopped,key_resp_T2.keys,key_resp_T2.corr,key_resp_T2.rt,key_resp_T2.duration,text_distractors_2.stopped,participant,order [1: single-dual or 2: dual-single],date,expName,psychopyVersion,frameRate,expStart,
,,,,,,,,,,,,,,,,,,,,,,,,,,,,,,,,,,0.006685699801892042,0.023602500092238188,0.023602500092238188,5.41843739990145,space,5.4103132002055645,None,,,,,,,,,,,,,,,,,,,,,,,,,,,,,,,,,,,,686480,1,2024-06-21_10h13.06.671,AB,2024.1.1,None,2024-06-21 10h13.15.421268 +0200,
single,dual,AFRAID,XXFEARX,3333333,10,3,7,j,f,1,YGLMSFQ,0,0,0,0,0,0,0,0,,,,,0,0,0,1,,,,,8.32081349985674,,,,,,,,,5.423825399950147,5.424096200149506,5.5544647998176515,5.565470399800688,6.432298100087792,6.5661622998304665,7.475153800100088,7.416072300169617,8.099293100181967,8.116052700206637,8.182816999964416,8.182871200144291,8.19901889981702,8.265923299826682,8.31209689984098,8.32081349985674,8.349122299812734,,,,,,,,,,,,,,,,,,,686480,1,2024-06-21_10h13.06.671,AB,2024.1.1,None,2024-06-21 10h13.15.421268 +0200,
single,dual,AFRAID,XXFEARX,3333333,10,3,7,j,f,1,ZTFYDXH,0,0,0,0,0,0,0,0,,,,,0,1,1,0,,,,,8.366064100060612,,,,,,,,,,,,,,,,,,,,,,,8.349371099844575,8.366064100060612,8.432784500066191,,,,,,,,,,,,,,,,,,,686480,1,2024-06-21_10h13.06.671,AB,2024.1.1,None,2024-06-21 10h13.15.421268 +0200,
single,dual,AFRAID,XXFEARX,3333333,10,3,7,j,f,1,HLFPYXK,0,0,0,0,0,0,0,0,,,,,,,,,0,0,0,4,8.571266499813646,,,,,,,,,,,,,,,,,8.56223089993,8.571266499813646,8.599203600082546,,,,,,,8.432873399928212,8.448985800147057,8.515846299938858,,,,,,,,,,,,,,,,686480,1,2024-06-21_10h13.06.671,AB,2024.1.1,None,2024-06-21 10h13.15.421268 +0200,
single,dual,AFRAID,XXFEARX,3333333,10,3,7,j,f,1,WMYFTGJ,0,0,0,0,0,0,0,0,,,,,,,,,0,1,1,6,8.616113500203937,,,,,,,,,,,,,,,,,8.59945569979027,8.616113500203937,8.682853799778968,,,,,,,,,,,,,,,,,,,,,,,,,686480,1,2024-06-21_10h13.06.671,AB,2024.1.1,None,2024-06-21 10h13.15.421268 +0200,
single,dual,AFRAID,XXFEARX,3333333,10,3,7,j,f,1,GQKRPDL,0,0,0,0,0,0,0,0,,,,,,,,,0,2,2,5,8.699074500240386,,,,,,,,,,,,,,,,,8.68311950005591,8.699074500240386,8.765819100197405,,,,,,,,,,,,,,,,,,,,,,,,,686480,1,2024-06-21_10h13.06.671,AB,2024.1.1,None,2024-06-21 10h13.15.421268 +0200,
single,dual,AFRAID,XXFEARX,3333333,10,3,7,j,f,1,VYKXSPC,0,0,0,0,0,0,0,0,,,,,,,,,0,3,3,2,8.782455100212246,,,,,,,,,,,,,,,,,8.766072600148618,8.782455100212246,8.849154300056398,,,,,,,,,,,,,,,,,,,,,,,,,686480,1,2024-06-21_10h13.06.671,AB,2024.1.1,None,2024-06-21 10h13.15.421268 +0200,
single,dual,AFRAID,XXFEARX,3333333,10,3,7,j,f,1,YGLMSFQ,0,0,0,0,0,0,0,0,,,,,,,,,0,4,4,1,8.86590539989993,,,,,,,,,,,,,,,,,8.84938930021599,8.86590539989993,8.932856699917465,,,,,,,,,,,,,,,,,,,,,,,,,686480,1,2024-06-21_10h13.06.671,AB,2024.1.1,None,2024-06-21 10h13.15.421268 +0200,
single,dual,AFRAID,XXFEARX,3333333,10,3,7,j,f,1,ZTFYDXH,0,0,0,0,0,0,0,0,,,,,,,,,0,5,5,0,8.949018300045282,,,,,,,,,,,,,,,,,8.933121100068092,8.949018300045282,9.015871500130743,,,,,,,,,,,,,,,,,,,,,,,,,686480,1,2024-06-21_10h13.06.671,AB,2024.1.1,None,2024-06-21 10h13.15.421268 +0200,
single,dual,AFRAID,XXFEARX,3333333,10,3,7,j,f,1,ZJTSHFP,0,0,0,0,0,0,0,0,,,,,,,,,0,6,6,3,9.032444600015879,,,,,,,,,,,,,,,,,9.01611480023712,9.032444600015879,9.099170499946922,,,,,,,,,,,,,,,,,,,,,,,,,686480,1,2024-06-21_10h13.06.671,AB,2024.1.1,None,2024-06-21 10h13.15.421268 +0200,
single,dual,AFRAID,XXFEARX,3333333,10,3,7,j,f,1,,0,0,0,0,0,0,0,0,,,,,,,,,,,,,,,,,,,,,,,,,,,,,,,,,,,,,,,,,,9.099262699950486,9.099302299786359,None,0,9.099598200060427,9.115992300212383,10.099595199804753,10.099595199804753,10.115817199926823,10.999789699912071,f,1,10.994802200235426,None,,686480,1,2024-06-21_10h13.06.671,AB,2024.1.1,None,2024-06-21 10h13.15.421268 +0200,
single,dual,DESK,XXRUNXX,9999999,7,3,10,j,j,0,YGLMSFQ,0,0,0,0,0,1,1,1,,,,,0,0,0,1,,,,,13.636473199818283,,,,,,,,,,,11.000388800166547,11.01579219987616,11.999180499929935,12.015893700066954,13.034940800163895,12.9829536001198,13.416420300025493,13.432572800200433,13.499866500031203,13.499920700211078,13.515982899814844,13.58292629988864,13.627648199908435,13.636473199818283,13.66611670004204,,,,,,,,,,,,,,,,,,,686480,1,2024-06-21_10h13.06.671,AB,2024.1.1,None,2024-06-21 10h13.15.421268 +0200,
single,dual,DESK,XXRUNXX,9999999,7,3,10,j,j,0,ZTFYDXH,0,0,0,0,0,1,1,1,,,,,0,1,1,0,,,,,13.682641500141472,,,,,,,,,,,,,,,,,,,,,,,13.666357799898833,13.682641500141472,13.749822999816388,,,,,,,,,,,,,,,,,,,686480,1,2024-06-21_10h13.06.671,AB,2024.1.1,None,2024-06-21 10h13.15.421268 +0200,
single,dual,DESK,XXRUNXX,9999999,7,3,10,j,j,0,YGLMSFQ,0,0,0,0,0,1,1,1,,,,,,,,,0,0,0,1,13.941913399845362,,,,,,,,,,,,,,,,,13.930479499977082,,13.933142499998212,,,,,,,13.749909999780357,13.766048400197178,13.832951600197703,,,,,,,,,,,,,,,,686480,1,2024-06-21_10h13.06.671,AB,2024.1.1,None,2024-06-21 10h13.15.421268 +0200,
single,dual,DESK,XXRUNXX,9999999,7,3,10,j,j,0,ZTFYDXH,0,0,0,0,0,1,1,1,,,,,,,,,0,1,1,0,13.941913399845362,,,,,,,,,,,,,,,,,13.933312899898738,13.941913399845362,13.999776099808514,,,,,,,,,,,,,,,,,,,,,,,,,686480,1,2024-06-21_10h13.06.671,AB,2024.1.1,None,2024-06-21 10h13.15.421268 +0200,
single,dual,DESK,XXRUNXX,9999999,7,3,10,j,j,0,ZJTSHFP,0,0,0,0,0,1,1,1,,,,,,,,,0,2,2,3,14.015972299966961,,,,,,,,,,,,,,,,,14.00003009987995,14.015972299966961,14.082793000154197,,,,,,,,,,,,,,,,,,,,,,,,,686480,1,2024-06-21_10h13.06.671,AB,2024.1.1,None,2024-06-21 10h13.15.421268 +0200,
single,dual,DESK,XXRUNXX,9999999,7,3,10,j,j,0,GQKRPDL,0,0,0,0,0,1,1,1,,,,,,,,,0,3,3,5,14.099569300189614,,,,,,,,,,,,,,,,,14.083040500059724,14.099569300189614,14.16643049987033,,,,,,,,,,,,,,,,,,,,,,,,,686480,1,2024-06-21_10h13.06.671,AB,2024.1.1,None,2024-06-21 10h13.15.421268 +0200,
single,dual,DESK,XXRUNXX,9999999,7,3,10,j,j,0,HLFPYXK,0,0,0,0,0,1,1,1,,,,,,,,,0,4,4,4,14.182767999824136,,,,,,,,,,,,,,,,,14.166674300096929,14.182767999824136,14.249812900088727,,,,,,,,,,,,,,,,,,,,,,,,,686480,1,2024-06-21_10h13.06.671,AB,2024.1.1,None,2024-06-21 10h13.15.421268 +0200,
single,dual,DESK,XXRUNXX,9999999,7,3,10,j,j,0,VFDMHQS,0,0,0,0,0,1,1,1,,,,,,,,,0,5,5,8,14.266020799987018,,,,,,,,,,,,,,,,,14.250088599976152,14.266020799987018,14.33287029992789,,,,,,,,,,,,,,,,,,,,,,,,,686480,1,2024-06-21_10h13.06.671,AB,2024.1.1,None,2024-06-21 10h13.15.421268 +0200,
single,dual,DESK,XXRUNXX,9999999,7,3,10,j,j,0,YNPLRQW,0,0,0,0,0,1,1,1,,,,,,,,,0,6,6,7,14.349725299980491,,,,,,,,,,,,,,,,,14.333134999964386,14.349725299980491,14.416574500035495,,,,,,,,,,,,,,,,,,,,,,,,,686480,1,2024-06-21_10h13.06.671,AB,2024.1.1,None,2024-06-21 10h13.15.421268 +0200,
single,dual,DESK,XXRUNXX,9999999,7,3,10,j,j,0,VYKXSPC,0,0,0,0,0,1,1,1,,,,,,,,,0,7,7,2,14.43311950005591,,,,,,,,,,,,,,,,,14.416840000078082,14.43311950005591,14.49980690004304,,,,,,,,,,,,,,,,,,,,,,,,,686480,1,2024-06-21_10h13.06.671,AB,2024.1.1,None,2024-06-21 10h13.15.421268 +0200,
single,dual,DESK,XXRUNXX,9999999,7,3,10,j,j,0,WMYFTGJ,0,0,0,0,0,1,1,1,,,,,,,,,0,8,8,6,14.516237999778241,,,,,,,,,,,,,,,,,14.500070000067353,14.516237999778241,14.583290299866349,,,,,,,,,,,,,,,,,,,,,,,,,686480,1,2024-06-21_10h13.06.671,AB,2024.1.1,None,2024-06-21 10h13.15.421268 +0200,
single,dual,DESK,XXRUNXX,9999999,7,3,10,j,j,0,HQTYPJM,0,0,0,0,0,1,1,1,,,,,,,,,0,9,9,9,14.599525399971753,,,,,,,,,,,,,,,,,14.583576600067317,14.599525399971753,14.666147700045258,,,,,,,,,,,,,,,,,,,,,,,,,686480,1,2024-06-21_10h13.06.671,AB,2024.1.1,None,2024-06-21 10h13.15.421268 +0200,
single,dual,DESK,XXRUNXX,9999999,7,3,10,j,j,0,,0,0,0,0,0,1,1,1,,,,,,,,,,,,,,,,,,,,,,,,,,,,,,,,,,,,,,,,,,14.666230299975723,14.666263699997216,None,0,14.666439000051469,14.682714200112969,15.666629400104284,15.666629400104284,15.682779899798334,17.300118600018322,j,1,17.29808019986376,None,,686480,1,2024-06-21_10h13.06.671,AB,2024.1.1,None,2024-06-21 10h13.15.421268 +0200,
single,dual,LION,FLOWERS,6666666,7,3,10,f,j,0,YGLMSFQ,0,0,0,0,0,2,2,2,,,,,0,0,0,1,,,,,19.938231899868697,,,,,,,,,,,17.300566900055856,17.316509900148958,18.299974599853158,18.31626190012321,19.338211699854583,19.283282599877566,19.717029800172895,19.73300339980051,19.79975020000711,19.79980929987505,19.816687600221485,19.88345960015431,19.928913400042802,19.938231899868697,19.96673749992624,,,,,,,,,,,,,,,,,,,686480,1,2024-06-21_10h13.06.671,AB,2024.1.1,None,2024-06-21 10h13.15.421268 +0200,
single,dual,LION,FLOWERS,6666666,7,3,10,f,j,0,ZTFYDXH,0,0,0,0,0,2,2,2,,,,,0,1,1,0,,,,,19.9829529998824,,,,,,,,,,,,,,,,,,,,,,,19.966997900046408,19.9829529998824,20.04971669986844,,,,,,,,,,,,,,,,,,,686480,1,2024-06-21_10h13.06.671,AB,2024.1.1,None,2024-06-21 10h13.15.421268 +0200,
single,dual,LION,FLOWERS,6666666,7,3,10,f,j,0,HLFPYXK,0,0,0,0,0,2,2,2,,,,,,,,,0,0,0,4,20.187365400139242,,,,,,,,,,,,,,,,,20.1776597998105,20.187365400139242,20.216768300160766,,,,,,,20.049806899856776,20.066625100094825,20.13302109995857,,,,,,,,,,,,,,,,686480,1,2024-06-21_10h13.06.671,AB,2024.1.1,None,2024-06-21 10h13.15.421268 +0200,
single,dual,LION,FLOWERS,6666666,7,3,10,f,j,0,VYKXSPC,0,0,0,0,0,2,2,2,,,,,,,,,0,1,1,2,20.233262099791318,,,,,,,,,,,,,,,,,20.21703159995377,20.233262099791318,20.299767000135034,,,,,,,,,,,,,,,,,,,,,,,,,686480,1,2024-06-21_10h13.06.671,AB,2024.1.1,None,2024-06-21 10h13.15.421268 +0200,
single,dual,LION,FLOWERS,6666666,7,3,10,f,j,0,ZJTSHFP,0,0,0,0,0,2,2,2,,,,,,,,,0,2,2,3,20.31670879991725,,,,,,,,,,,,,,,,,20.30002159997821,20.31670879991725,20.383081399835646,,,,,,,,,,,,,,,,,,,,,,,,,686480,1,2024-06-21_10h13.06.671,AB,2024.1.1,None,2024-06-21 10h13.15.421268 +0200,
single,dual,LION,FLOWERS,6666666,7,3,10,f,j,0,YNPLRQW,0,0,0,0,0,2,2,2,,,,,,,,,0,3,3,7,20.400139399804175,,,,,,,,,,,,,,,,,20.383334999904037,20.400139399804175,20.466903899796307,,,,,,,,,,,,,,,,,,,,,,,,,686480,1,2024-06-21_10h13.06.671,AB,2024.1.1,None,2024-06-21 10h13.15.421268 +0200,
single,dual,LION,FLOWERS,6666666,7,3,10,f,j,0,GQKRPDL,0,0,0,0,0,2,2,2,,,,,,,,,0,4,4,5,20.48300960008055,,,,,,,,,,,,,,,,,20.467170599848032,20.48300960008055,20.54981070011854,,,,,,,,,,,,,,,,,,,,,,,,,686480,1,2024-06-21_10h13.06.671,AB,2024.1.1,None,2024-06-21 10h13.15.421268 +0200,
single,dual,LION,FLOWERS,6666666,7,3,10,f,j,0,VFDMHQS,0,0,0,0,0,2,2,2,,,,,,,,,0,5,5,8,20.566717099864036,,,,,,,,,,,,,,,,,20.550054599996656,20.566717099864036,20.633159500081092,,,,,,,,,,,,,,,,,,,,,,,,,686480,1,2024-06-21_10h13.06.671,AB,2024.1.1,None,2024-06-21 10h13.15.421268 +0200,
single,dual,LION,FLOWERS,6666666,7,3,10,f,j,0,WMYFTGJ,0,0,0,0,0,2,2,2,,,,,,,,,0,6,6,6,20.649858999997377,,,,,,,,,,,,,,,,,20.633400400169194,20.649858999997377,20.71679119998589,,,,,,,,,,,,,,,,,,,,,,,,,686480,1,2024-06-21_10h13.06.671,AB,2024.1.1,None,2024-06-21 10h13.15.421268 +0200,
single,dual,LION,FLOWERS,6666666,7,3,10,f,j,0,YGLMSFQ,0,0,0,0,0,2,2,2,,,,,,,,,0,7,7,1,20.733076499775052,,,,,,,,,,,,,,,,,20.717052900232375,20.733076499775052,20.799939999822527,,,,,,,,,,,,,,,,,,,,,,,,,686480,1,2024-06-21_10h13.06.671,AB,2024.1.1,None,2024-06-21 10h13.15.421268 +0200,
single,dual,LION,FLOWERS,6666666,7,3,10,f,j,0,ZTFYDXH,0,0,0,0,0,2,2,2,,,,,,,,,0,8,8,0,20.816360199823976,,,,,,,,,,,,,,,,,20.80022080009803,20.816360199823976,20.88323470018804,,,,,,,,,,,,,,,,,,,,,,,,,686480,1,2024-06-21_10h13.06.671,AB,2024.1.1,None,2024-06-21 10h13.15.421268 +0200,
single,dual,LION,FLOWERS,6666666,7,3,10,f,j,0,HQTYPJM,0,0,0,0,0,2,2,2,,,,,,,,,0,9,9,9,20.899758799932897,,,,,,,,,,,,,,,,,20.883497499860823,20.899758799932897,20.966784100048244,,,,,,,,,,,,,,,,,,,,,,,,,686480,1,2024-06-21_10h13.06.671,AB,2024.1.1,None,2024-06-21 10h13.15.421268 +0200,
single,dual,LION,FLOWERS,6666666,7,3,10,f,j,0,,0,0,0,0,0,2,2,2,,,,,,,,,,,,,,,,,,,,,,,,,,,,,,,,,,,,,,,,,,20.966875299811363,20.96692330017686,None,0,20.96711160009727,20.983017399907112,21.966372000053525,21.966372000053525,21.9835068997927,22.700733399949968,j,1,22.689963100012392,None,,686480,1,2024-06-21_10h13.06.671,AB,2024.1.1,None,2024-06-21 10h13.15.421268 +0200,
single,dual,DEEP,SHALLOW,0,10,3,7,f,f,1,ZTFYDXH,0,0,0,0,0,3,3,3,,,,,0,0,0,0,,,,,25.58458899985999,,,,,,,,,,,22.701168400235474,22.716453399974853,23.699938099831343,23.716899699997157,24.737647499889135,24.68408099981025,25.366882599890232,25.383695300202817,25.45036520017311,25.45042089978233,25.46659510023892,25.53374469978735,25.578198300208896,25.58458899985999,25.616729400120676,,,,,,,,,,,,,,,,,,,686480,1,2024-06-21_10h13.06.671,AB,2024.1.1,None,2024-06-21 10h13.15.421268 +0200,
single,dual,DEEP,SHALLOW,0,10,3,7,f,f,1,YGLMSFQ,0,0,0,0,0,3,3,3,,,,,0,1,1,1,,,,,25.633606600109488,,,,,,,,,,,,,,,,,,,,,,,25.616976299788803,25.633606600109488,25.699982000049204,,,,,,,,,,,,,,,,,,,686480,1,2024-06-21_10h13.06.671,AB,2024.1.1,None,2024-06-21 10h13.15.421268 +0200,
single,dual,DEEP,SHALLOW,0,10,3,7,f,f,1,HLFPYXK,0,0,0,0,0,3,3,3,,,,,,,,,0,0,0,4,25.83748609991744,,,,,,,,,,,,,,,,,25.828058999963105,25.83748609991744,25.866683499887586,,,,,,,25.700068600010127,25.716639699880034,25.78404670022428,,,,,,,,,,,,,,,,686480,1,2024-06-21_10h13.06.671,AB,2024.1.1,None,2024-06-21 10h13.15.421268 +0200,
single,dual,DEEP,SHALLOW,0,10,3,7,f,f,1,ZJTSHFP,0,0,0,0,0,3,3,3,,,,,,,,,0,1,1,3,25.88363299984485,,,,,,,,,,,,,,,,,25.86691620014608,25.88363299984485,25.95042030001059,,,,,,,,,,,,,,,,,,,,,,,,,686480,1,2024-06-21_10h13.06.671,AB,2024.1.1,None,2024-06-21 10h13.15.421268 +0200,
single,dual,DEEP,SHALLOW,0,10,3,7,f,f,1,ZTFYDXH,0,0,0,0,0,3,3,3,,,,,,,,,0,2,2,0,25.966685799881816,,,,,,,,,,,,,,,,,25.950670800171793,25.966685799881816,26.0337827000767,,,,,,,,,,,,,,,,,,,,,,,,,686480,1,2024-06-21_10h13.06.671,AB,2024.1.1,None,2024-06-21 10h13.15.421268 +0200,
single,dual,DEEP,SHALLOW,0,10,3,7,f,f,1,VYKXSPC,0,0,0,0,0,3,3,3,,,,,,,,,0,3,3,2,26.049985600169748,,,,,,,,,,,,,,,,,26.034046200104058,26.049985600169748,26.117019400000572,,,,,,,,,,,,,,,,,,,,,,,,,686480,1,2024-06-21_10h13.06.671,AB,2024.1.1,None,2024-06-21 10h13.15.421268 +0200,
single,dual,DEEP,SHALLOW,0,10,3,7,f,f,1,GQKRPDL,0,0,0,0,0,3,3,3,,,,,,,,,0,4,4,5,26.133334999904037,,,,,,,,,,,,,,,,,26.11727049993351,26.133334999904037,26.200181600172073,,,,,,,,,,,,,,,,,,,,,,,,,686480,1,2024-06-21_10h13.06.671,AB,2024.1.1,None,2024-06-21 10h13.15.421268 +0200,
single,dual,DEEP,SHALLOW,0,10,3,7,f,f,1,YGLMSFQ,0,0,0,0,0,3,3,3,,,,,,,,,0,5,5,1,26.2166614998132,,,,,,,,,,,,,,,,,26.20043099997565,26.2166614998132,26.28373990021646,,,,,,,,,,,,,,,,,,,,,,,,,686480,1,2024-06-21_10h13.06.671,AB,2024.1.1,None,2024-06-21 10h13.15.421268 +0200,
single,dual,DEEP,SHALLOW,0,10,3,7,f,f,1,WMYFTGJ,0,0,0,0,0,3,3,3,,,,,,,,,0,6,6,6,26.299984599929303,,,,,,,,,,,,,,,,,26.283993400167674,26.299984599929303,26.366734500043094,,,,,,,,,,,,,,,,,,,,,,,,,686480,1,2024-06-21_10h13.06.671,AB,2024.1.1,None,2024-06-21 10h13.15.421268 +0200,
single,dual,DEEP,SHALLOW,0,10,3,7,f,f,1,,0,0,0,0,0,3,3,3,,,,,,,,,,,,,,,,,,,,,,,,,,,,,,,,,,,,,,,,,,26.366824199911207,26.36685930006206,None,0,26.36704650009051,26.38371910015121,27.36669800011441,27.36669800011441,27.383321899920702,27.667602700181305,f,1,27.651456399820745,None,,686480,1,2024-06-21_10h13.06.671,AB,2024.1.1,None,2024-06-21 10h13.15.421268 +0200,
single,dual,SAUNA,XXPOOLX,4444444,7,1,12,f,f,1,,0,0,0,0,0,4,4,4,,,,,0,0,0,0,,,,,30.30427230009809,,,,,,,,,,,27.668041199911386,27.683385599870235,28.666755700018257,28.68339949985966,29.70518850022927,29.651121499948204,30.083782699890435,30.100550699979067,30.167000900022686,30.167053900193423,30.183527200017124,30.250643599778414,30.295349299907684,,30.29539590002969,,,,,,,,,,,,,,,,,,,686480,1,2024-06-21_10h13.06.671,AB,2024.1.1,None,2024-06-21 10h13.15.421268 +0200,
single,dual,SAUNA,XXPOOLX,4444444,7,1,12,f,f,1,YNPLRQW,0,0,0,0,0,4,4,4,,,,,,,,,0,0,0,7,30.437761299777776,,,,,,,,,,,,,,,,,30.42869949992746,30.437761299777776,30.46733650006354,,,,,,,30.295459100045264,30.30427230009809,30.383659900166094,,,,,,,,,,,,,,,,686480,1,2024-06-21_10h13.06.671,AB,2024.1.1,None,2024-06-21 10h13.15.421268 +0200,
single,dual,SAUNA,XXPOOLX,4444444,7,1,12,f,f,1,ZJTSHFP,0,0,0,0,0,4,4,4,,,,,,,,,0,1,1,3,30.483551899902523,,,,,,,,,,,,,,,,,30.467595300171524,30.483551899902523,30.550649700220674,,,,,,,,,,,,,,,,,,,,,,,,,686480,1,2024-06-21_10h13.06.671,AB,2024.1.1,None,2024-06-21 10h13.15.421268 +0200,
single,dual,SAUNA,XXPOOLX,4444444,7,1,12,f,f,1,WMYFTGJ,0,0,0,0,0,4,4,4,,,,,,,,,0,2,2,6,30.566887100227177,,,,,,,,,,,,,,,,,30.550900400150567,30.566887100227177,30.633563300129026,,,,,,,,,,,,,,,,,,,,,,,,,686480,1,2024-06-21_10h13.06.671,AB,2024.1.1,None,2024-06-21 10h13.15.421268 +0200,
single,dual,SAUNA,XXPOOLX,4444444,7,1,12,f,f,1,HLFPYXK,0,0,0,0,0,4,4,4,,,,,,,,,0,3,3,4,30.65059919981286,,,,,,,,,,,,,,,,,30.633810100145638,30.65059919981286,30.717586900107563,,,,,,,,,,,,,,,,,,,,,,,,,686480,1,2024-06-21_10h13.06.671,AB,2024.1.1,None,2024-06-21 10h13.15.421268 +0200,
single,dual,SAUNA,XXPOOLX,4444444,7,1,12,f,f,1,VFDMHQS,0,0,0,0,0,4,4,4,,,,,,,,,0,4,4,8,30.733587800059468,,,,,,,,,,,,,,,,,30.717850899789482,30.733587800059468,30.800694200210273,,,,,,,,,,,,,,,,,,,,,,,,,686480,1,2024-06-21_10h13.06.671,AB,2024.1.1,None,2024-06-21 10h13.15.421268 +0200,
single,dual,SAUNA,XXPOOLX,4444444,7,1,12,f,f,1,VYKXSPC,0,0,0,0,0,4,4,4,,,,,,,,,0,5,5,2,30.816886499989778,,,,,,,,,,,,,,,,,30.800954999867827,30.816886499989778,30.883715000003576,,,,,,,,,,,,,,,,,,,,,,,,,686480,1,2024-06-21_10h13.06.671,AB,2024.1.1,None,2024-06-21 10h13.15.421268 +0200,
single,dual,SAUNA,XXPOOLX,4444444,7,1,12,f,f,1,WFXQGMY,0,0,0,0,0,4,4,4,,,,,,,,,0,6,6,11,30.900731300003827,,,,,,,,,,,,,,,,,30.883967800065875,30.900731300003827,30.96697250008583,,,,,,,,,,,,,,,,,,,,,,,,,686480,1,2024-06-21_10h13.06.671,AB,2024.1.1,None,2024-06-21 10h13.15.421268 +0200,
single,dual,SAUNA,XXPOOLX,4444444,7,1,12,f,f,1,TJRHKVF,0,0,0,0,0,4,4,4,,,,,,,,,0,7,7,10,30.98356330022216,,,,,,,,,,,,,,,,,30.967218600213528,30.98356330022216,31.050718099810183,,,,,,,,,,,,,,,,,,,,,,,,,686480,1,2024-06-21_10h13.06.671,AB,2024.1.1,None,2024-06-21 10h13.15.421268 +0200,
single,dual,SAUNA,XXPOOLX,4444444,7,1,12,f,f,1,ZTFYDXH,0,0,0,0,0,4,4,4,,,,,,,,,0,8,8,0,31.06684499979019,,,,,,,,,,,,,,,,,31.050985500216484,31.06684499979019,31.133806800004095,,,,,,,,,,,,,,,,,,,,,,,,,686480,1,2024-06-21_10h13.06.671,AB,2024.1.1,None,2024-06-21 10h13.15.421268 +0200,
single,dual,SAUNA,XXPOOLX,4444444,7,1,12,f,f,1,HQTYPJM,0,0,0,0,0,4,4,4,,,,,,,,,0,9,9,9,31.150677800178528,,,,,,,,,,,,,,,,,31.134076700080186,31.150677800178528,31.217043899931014,,,,,,,,,,,,,,,,,,,,,,,,,686480,1,2024-06-21_10h13.06.671,AB,2024.1.1,None,2024-06-21 10h13.15.421268 +0200,
single,dual,SAUNA,XXPOOLX,4444444,7,1,12,f,f,1,GQKRPDL,0,0,0,0,0,4,4,4,,,,,,,,,0,10,10,5,31.233878700062633,,,,,,,,,,,,,,,,,31.217290400061756,31.233878700062633,31.300709300208837,,,,,,,,,,,,,,,,,,,,,,,,,686480,1,2024-06-21_10h13.06.671,AB,2024.1.1,None,2024-06-21 10h13.15.421268 +0200,
single,dual,SAUNA,XXPOOLX,4444444,7,1,12,f,f,1,YGLMSFQ,0,0,0,0,0,4,4,4,,,,,,,,,0,11,11,1,31.31697960011661,,,,,,,,,,,,,,,,,31.30097209988162,31.31697960011661,31.384060500189662,,,,,,,,,,,,,,,,,,,,,,,,,686480,1,2024-06-21_10h13.06.671,AB,2024.1.1,None,2024-06-21 10h13.15.421268 +0200,
single,dual,SAUNA,XXPOOLX,4444444,7,1,12,f,f,1,,0,0,0,0,0,4,4,4,,,,,,,,,,,,,,,,,,,,,,,,,,,,,,,,,,,,,,,,,,31.384151100181043,31.384187700226903,None,0,31.384383299853653,31.40060369996354,32.38362800003961,32.38362800003961,32.4002732001245,32.9013068000786,f,1,32.898186000064015,None,,686480,1,2024-06-21_10h13.06.671,AB,2024.1.1,None,2024-06-21 10h13.15.421268 +0200,
single,dual,YOURS,XXMINEX,9999999,10,1,9,j,f,1,,0,0,0,0,0,5,5,5,,,,,0,0,0,0,,,,,35.79130219994113,,,,,,,,,,,32.90175520023331,32.917141700163484,33.91745320009068,33.91745320009068,34.95460359985009,34.90081050014123,35.567931099794805,35.58386870007962,35.65055410005152,35.65060870023444,35.66755410004407,35.73390250001103,35.77977039990947,,35.78254160005599,,,,,,,,,,,,,,,,,,,686480,1,2024-06-21_10h13.06.671,AB,2024.1.1,None,2024-06-21 10h13.15.421268 +0200,
single,dual,YOURS,XXMINEX,9999999,10,1,9,j,f,1,GQKRPDL,0,0,0,0,0,5,5,5,,,,,,,,,0,0,0,5,35.921113499905914,,,,,,,,,,,,,,,,,35.91196390008554,35.921113499905914,35.95055929990485,,,,,,,35.78260949999094,35.79130219994113,35.867120400071144,,,,,,,,,,,,,,,,686480,1,2024-06-21_10h13.06.671,AB,2024.1.1,None,2024-06-21 10h13.15.421268 +0200,
single,dual,YOURS,XXMINEX,9999999,10,1,9,j,f,1,ZJTSHFP,0,0,0,0,0,5,5,5,,,,,,,,,0,1,1,3,35.96751300012693,,,,,,,,,,,,,,,,,35.950803900137544,35.96751300012693,36.034367099869996,,,,,,,,,,,,,,,,,,,,,,,,,686480,1,2024-06-21_10h13.06.671,AB,2024.1.1,None,2024-06-21 10h13.15.421268 +0200,
single,dual,YOURS,XXMINEX,9999999,10,1,9,j,f,1,VYKXSPC,0,0,0,0,0,5,5,5,,,,,,,,,0,2,2,2,36.050518500152975,,,,,,,,,,,,,,,,,36.03462040005252,36.050518500152975,36.117189299780875,,,,,,,,,,,,,,,,,,,,,,,,,686480,1,2024-06-21_10h13.06.671,AB,2024.1.1,None,2024-06-21 10h13.15.421268 +0200,
single,dual,YOURS,XXMINEX,9999999,10,1,9,j,f,1,VFDMHQS,0,0,0,0,0,5,5,5,,,,,,,,,0,3,3,8,36.134389699902385,,,,,,,,,,,,,,,,,36.11742469994351,36.134389699902385,36.20062030013651,,,,,,,,,,,,,,,,,,,,,,,,,686480,1,2024-06-21_10h13.06.671,AB,2024.1.1,None,2024-06-21 10h13.15.421268 +0200,
single,dual,YOURS,XXMINEX,9999999,10,1,9,j,f,1,YNPLRQW,0,0,0,0,0,5,5,5,,,,,,,,,0,4,4,7,36.217533899936825,,,,,,,,,,,,,,,,,36.20086710015312,36.217533899936825,36.28386279987171,,,,,,,,,,,,,,,,,,,,,,,,,686480,1,2024-06-21_10h13.06.671,AB,2024.1.1,None,2024-06-21 10h13.15.421268 +0200,
single,dual,YOURS,XXMINEX,9999999,10,1,9,j,f,1,YGLMSFQ,0,0,0,0,0,5,5,5,,,,,,,,,0,5,5,1,36.300539299845695,,,,,,,,,,,,,,,,,36.284103400073946,36.300539299845695,36.36765730008483,,,,,,,,,,,,,,,,,,,,,,,,,686480,1,2024-06-21_10h13.06.671,AB,2024.1.1,None,2024-06-21 10h13.15.421268 +0200,
single,dual,YOURS,XXMINEX,9999999,10,1,9,j,f,1,WMYFTGJ,0,0,0,0,0,5,5,5,,,,,,,,,0,6,6,6,36.38395249983296,,,,,,,,,,,,,,,,,36.36791960010305,36.38395249983296,36.45059549994767,,,,,,,,,,,,,,,,,,,,,,,,,686480,1,2024-06-21_10h13.06.671,AB,2024.1.1,None,2024-06-21 10h13.15.421268 +0200,
single,dual,YOURS,XXMINEX,9999999,10,1,9,j,f,1,HLFPYXK,0,0,0,0,0,5,5,5,,,,,,,,,0,7,7,4,36.46755600022152,,,,,,,,,,,,,,,,,36.45084320008755,36.46755600022152,36.5338806998916,,,,,,,,,,,,,,,,,,,,,,,,,686480,1,2024-06-21_10h13.06.671,AB,2024.1.1,None,2024-06-21 10h13.15.421268 +0200,
single,dual,YOURS,XXMINEX,9999999,10,1,9,j,f,1,ZTFYDXH,0,0,0,0,0,5,5,5,,,,,,,,,0,8,8,0,36.55048209987581,,,,,,,,,,,,,,,,,36.53412810014561,36.55048209987581,36.61758629977703,,,,,,,,,,,,,,,,,,,,,,,,,686480,1,2024-06-21_10h13.06.671,AB,2024.1.1,None,2024-06-21 10h13.15.421268 +0200,
single,dual,YOURS,XXMINEX,9999999,10,1,9,j,f,1,,0,0,0,0,0,5,5,5,,,,,,,,,,,,,,,,,,,,,,,,,,,,,,,,,,,,,,,,,,36.617675700224936,36.61771239992231,None,0,36.61790620023385,36.633949799928814,37.617650399915874,37.617650399915874,37.63391049997881,38.86835249979049,j,0,38.86688010022044,None,,686480,1,2024-06-21_10h13.06.671,AB,2024.1.1,None,2024-06-21 10h13.15.421268 +0200,
single,dual,STORM,XXFIXXX,7777777,10,3,7,j,j,0,ZTFYDXH,0,0,0,0,0,6,6,6,,,,,0,0,0,0,,,,,41.75562469987199,,,,,,,,,,,38.86879099998623,38.8843228998594,39.884201399981976,39.884201399981976,40.92289360007271,40.86806849995628,41.5344604998827,41.55123180011287,41.617613200098276,41.617666999809444,41.63445540005341,41.7008806001395,41.74568430008367,41.75562469987199,41.78464590013027,,,,,,,,,,,,,,,,,,,686480,1,2024-06-21_10h13.06.671,AB,2024.1.1,None,2024-06-21 10h13.15.421268 +0200,
single,dual,STORM,XXFIXXX,7777777,10,3,7,j,j,0,YGLMSFQ,0,0,0,0,0,6,6,6,,,,,0,1,1,1,,,,,41.80087730009109,,,,,,,,,,,,,,,,,,,,,,,41.784917999990284,41.80087730009109,41.86757030012086,,,,,,,,,,,,,,,,,,,686480,1,2024-06-21_10h13.06.671,AB,2024.1.1,None,2024-06-21 10h13.15.421268 +0200,
single,dual,STORM,XXFIXXX,7777777,10,3,7,j,j,0,GQKRPDL,0,0,0,0,0,6,6,6,,,,,,,,,0,0,0,5,42.0048683998175,,,,,,,,,,,,,,,,,41.995792699977756,42.0048683998175,42.03463270002976,,,,,,,41.86765170004219,41.88447570009157,41.950934200081974,,,,,,,,,,,,,,,,686480,1,2024-06-21_10h13.06.671,AB,2024.1.1,None,2024-06-21 10h13.15.421268 +0200,
single,dual,STORM,XXFIXXX,7777777,10,3,7,j,j,0,VYKXSPC,0,0,0,0,0,6,6,6,,,,,,,,,0,1,1,2,42.05090520018712,,,,,,,,,,,,,,,,,42.03488689986989,42.05090520018712,42.11756179993972,,,,,,,,,,,,,,,,,,,,,,,,,686480,1,2024-06-21_10h13.06.671,AB,2024.1.1,None,2024-06-21 10h13.15.421268 +0200,
single,dual,STORM,XXFIXXX,7777777,10,3,7,j,j,0,ZJTSHFP,0,0,0,0,0,6,6,6,,,,,,,,,0,2,2,3,42.13467419985682,,,,,,,,,,,,,,,,,42.11780649982393,42.13467419985682,42.20092270011082,,,,,,,,,,,,,,,,,,,,,,,,,686480,1,2024-06-21_10h13.06.671,AB,2024.1.1,None,2024-06-21 10h13.15.421268 +0200,
single,dual,STORM,XXFIXXX,7777777,10,3,7,j,j,0,WMYFTGJ,0,0,0,0,0,6,6,6,,,,,,,,,0,3,3,6,42.21750710019842,,,,,,,,,,,,,,,,,42.20116089982912,42.21750710019842,42.28461380023509,,,,,,,,,,,,,,,,,,,,,,,,,686480,1,2024-06-21_10h13.06.671,AB,2024.1.1,None,2024-06-21 10h13.15.421268 +0200,
single,dual,STORM,XXFIXXX,7777777,10,3,7,j,j,0,HLFPYXK,0,0,0,0,0,6,6,6,,,,,,,,,0,4,4,4,42.300844700075686,,,,,,,,,,,,,,,,,42.284870699979365,42.300844700075686,42.36761389998719,,,,,,,,,,,,,,,,,,,,,,,,,686480,1,2024-06-21_10h13.06.671,AB,2024.1.1,None,2024-06-21 10h13.15.421268 +0200,
single,dual,STORM,XXFIXXX,7777777,10,3,7,j,j,0,YGLMSFQ,0,0,0,0,0,6,6,6,,,,,,,,,0,5,5,1,42.384482900146395,,,,,,,,,,,,,,,,,42.367860100232065,42.384482900146395,42.45132589992136,,,,,,,,,,,,,,,,,,,,,,,,,686480,1,2024-06-21_10h13.06.671,AB,2024.1.1,None,2024-06-21 10h13.15.421268 +0200,
single,dual,STORM,XXFIXXX,7777777,10,3,7,j,j,0,ZTFYDXH,0,0,0,0,0,6,6,6,,,,,,,,,0,6,6,0,42.46749969990924,,,,,,,,,,,,,,,,,42.45157629996538,42.46749969990924,42.53463019989431,,,,,,,,,,,,,,,,,,,,,,,,,686480,1,2024-06-21_10h13.06.671,AB,2024.1.1,None,2024-06-21 10h13.15.421268 +0200,
single,dual,STORM,XXFIXXX,7777777,10,3,7,j,j,0,,0,0,0,0,0,6,6,6,,,,,,,,,,,,,,,,,,,,,,,,,,,,,,,,,,,,,,,,,,42.534715599846095,42.534751900006086,None,0,42.53494710009545,42.55108720017597,43.53423970006406,43.53423970006406,43.55143739981577,44.55208220006898,j,1,44.54601619997993,None,,686480,1,2024-06-21_10h13.06.671,AB,2024.1.1,None,2024-06-21 10h13.15.421268 +0200,
single,dual,DIRTY,XXFOOTX,7777777,10,7,3,j,j,0,ZJTSHFP,0,0,0,0,0,7,7,7,,,,,0,0,0,3,,,,,47.43860530015081,,,,,,,,,,,44.55252519994974,44.5675951000303,45.55150149995461,45.56815750012174,46.63794089993462,46.53504060022533,47.21808960009366,47.23452549986541,47.30160260014236,47.301655900198966,47.31819389993325,47.38455019984394,47.42941060010344,47.43860530015081,47.46787950024009,,,,,,,,,,,,,,,,,,46.734414299950004,686480,1,2024-06-21_10h13.06.671,AB,2024.1.1,None,2024-06-21 10h13.15.421268 +0200,
single,dual,DIRTY,XXFOOTX,7777777,10,7,3,j,j,0,HLFPYXK,0,0,0,0,0,7,7,7,,,,,0,1,1,4,,,,,47.48442670004442,,,,,,,,,,,,,,,,,,,,,,,47.46813050005585,47.48442670004442,47.55163299990818,,,,,,,,,,,,,,,,,,,686480,1,2024-06-21_10h13.06.671,AB,2024.1.1,None,2024-06-21 10h13.15.421268 +0200,
single,dual,DIRTY,XXFOOTX,7777777,10,7,3,j,j,0,VYKXSPC,0,0,0,0,0,7,7,7,,,,,0,2,2,2,,,,,47.56783549999818,,,,,,,,,,,,,,,,,,,,,,,47.55190239986405,47.56783549999818,47.63456569984555,,,,,,,,,,,,,,,,,,,686480,1,2024-06-21_10h13.06.671,AB,2024.1.1,None,2024-06-21 10h13.15.421268 +0200,
single,dual,DIRTY,XXFOOTX,7777777,10,7,3,j,j,0,YGLMSFQ,0,0,0,0,0,7,7,7,,,,,0,3,3,1,,,,,47.65113320015371,,,,,,,,,,,,,,,,,,,,,,,47.6348239001818,47.65113320015371,47.71794949984178,,,,,,,,,,,,,,,,,,,686480,1,2024-06-21_10h13.06.671,AB,2024.1.1,None,2024-06-21 10h13.15.421268 +0200,
single,dual,DIRTY,XXFOOTX,7777777,10,7,3,j,j,0,GQKRPDL,0,0,0,0,0,7,7,7,,,,,0,4,4,5,,,,,47.734471099916846,,,,,,,,,,,,,,,,,,,,,,,47.718202400021255,47.734471099916846,47.801218799781054,,,,,,,,,,,,,,,,,,,686480,1,2024-06-21_10h13.06.671,AB,2024.1.1,None,2024-06-21 10h13.15.421268 +0200,
single,dual,DIRTY,XXFOOTX,7777777,10,7,3,j,j,0,ZTFYDXH,0,0,0,0,0,7,7,7,,,,,0,5,5,0,,,,,47.818202700000256,,,,,,,,,,,,,,,,,,,,,,,47.80146040022373,47.818202700000256,47.884918599855155,,,,,,,,,,,,,,,,,,,686480,1,2024-06-21_10h13.06.671,AB,2024.1.1,None,2024-06-21 10h13.15.421268 +0200,
single,dual,DIRTY,XXFOOTX,7777777,10,7,3,j,j,0,YGLMSFQ,0,0,0,0,0,7,7,7,,,,,,,,,0,0,0,1,48.0214549000375,,,,,,,,,,,,,,,,,48.01284260023385,48.0214549000375,48.051237899810076,,,,,,,47.8849996002391,47.90114689990878,47.96796939987689,,,,,,,,,,,,,,,,686480,1,2024-06-21_10h13.06.671,AB,2024.1.1,None,2024-06-21 10h13.15.421268 +0200,
single,dual,DIRTY,XXFOOTX,7777777,10,7,3,j,j,0,ZTFYDXH,0,0,0,0,0,7,7,7,,,,,,,,,0,1,1,0,48.068192599806935,,,,,,,,,,,,,,,,,48.051485400181264,48.068192599806935,48.13458470022306,,,,,,,,,,,,,,,,,,,,,,,,,686480,1,2024-06-21_10h13.06.671,AB,2024.1.1,None,2024-06-21 10h13.15.421268 +0200,
single,dual,DIRTY,XXFOOTX,7777777,10,7,3,j,j,0,VYKXSPC,0,0,0,0,0,7,7,7,,,,,,,,,0,2,2,2,48.151232100091875,,,,,,,,,,,,,,,,,48.13483890006319,48.151232100091875,48.21788469981402,,,,,,,,,,,,,,,,,,,,,,,,,686480,1,2024-06-21_10h13.06.671,AB,2024.1.1,None,2024-06-21 10h13.15.421268 +0200,
single,dual,DIRTY,XXFOOTX,7777777,10,7,3,j,j,0,,0,0,0,0,0,7,7,7,,,,,,,,,,,,,,,,,,,,,,,,,,,,,,,,,,,,,,,,,,48.21796440007165,48.21799870021641,None,0,48.21818510023877,48.23445300012827,49.21825660020113,49.21825660020113,49.234493100084364,50.485734700225294,j,1,50.48200270021334,None,,686480,1,2024-06-21_10h13.06.671,AB,2024.1.1,None,2024-06-21 10h13.15.421268 +0200,
single,dual,ANIMALS,XXDEERX,5555555,10,3,7,j,j,0,YGLMSFQ,0,0,0,0,0,8,8,8,,,,,0,0,0,1,,,,,53.37235839990899,,,,,,,,,,,50.48618650017306,50.501356800086796,51.50140559999272,51.50140559999272,52.53902419982478,52.48514400003478,53.15179099980742,53.168100600130856,53.2352328998968,53.235287399962544,53.25158909987658,53.318173199892044,53.36338140023872,53.37235839990899,53.401573199778795,,,,,,,,,,,,,,,,,,,686480,1,2024-06-21_10h13.06.671,AB,2024.1.1,None,2024-06-21 10h13.15.421268 +0200,
single,dual,ANIMALS,XXDEERX,5555555,10,3,7,j,j,0,ZTFYDXH,0,0,0,0,0,8,8,8,,,,,0,1,1,0,,,,,53.41812299983576,,,,,,,,,,,,,,,,,,,,,,,53.40185029990971,53.41812299983576,53.485245999880135,,,,,,,,,,,,,,,,,,,686480,1,2024-06-21_10h13.06.671,AB,2024.1.1,None,2024-06-21 10h13.15.421268 +0200,
single,dual,ANIMALS,XXDEERX,5555555,10,3,7,j,j,0,YGLMSFQ,0,0,0,0,0,8,8,8,,,,,,,,,0,0,0,1,53.62180110020563,,,,,,,,,,,,,,,,,53.612949800211936,53.62180110020563,53.65147989988327,,,,,,,53.485332999844104,53.501463199965656,53.56815120019019,,,,,,,,,,,,,,,,686480,1,2024-06-21_10h13.06.671,AB,2024.1.1,None,2024-06-21 10h13.15.421268 +0200,
single,dual,ANIMALS,XXDEERX,5555555,10,3,7,j,j,0,WMYFTGJ,0,0,0,0,0,8,8,8,,,,,,,,,0,1,1,6,53.66813560016453,,,,,,,,,,,,,,,,,53.65174600016326,53.66813560016453,53.73525090003386,,,,,,,,,,,,,,,,,,,,,,,,,686480,1,2024-06-21_10h13.06.671,AB,2024.1.1,None,2024-06-21 10h13.15.421268 +0200,
single,dual,ANIMALS,XXDEERX,5555555,10,3,7,j,j,0,ZTFYDXH,0,0,0,0,0,8,8,8,,,,,,,,,0,2,2,0,53.751439900137484,,,,,,,,,,,,,,,,,53.735515899956226,53.751439900137484,53.81820229999721,,,,,,,,,,,,,,,,,,,,,,,,,686480,1,2024-06-21_10h13.06.671,AB,2024.1.1,None,2024-06-21 10h13.15.421268 +0200,
single,dual,ANIMALS,XXDEERX,5555555,10,3,7,j,j,0,HLFPYXK,0,0,0,0,0,8,8,8,,,,,,,,,0,3,3,4,53.835177899803966,,,,,,,,,,,,,,,,,53.8184462999925,53.835177899803966,53.90157889993861,,,,,,,,,,,,,,,,,,,,,,,,,686480,1,2024-06-21_10h13.06.671,AB,2024.1.1,None,2024-06-21 10h13.15.421268 +0200,
single,dual,ANIMALS,XXDEERX,5555555,10,3,7,j,j,0,GQKRPDL,0,0,0,0,0,8,8,8,,,,,,,,,0,4,4,5,53.91813939996064,,,,,,,,,,,,,,,,,53.90184239996597,53.91813939996064,53.98528950009495,,,,,,,,,,,,,,,,,,,,,,,,,686480,1,2024-06-21_10h13.06.671,AB,2024.1.1,None,2024-06-21 10h13.15.421268 +0200,
single,dual,ANIMALS,XXDEERX,5555555,10,3,7,j,j,0,ZJTSHFP,0,0,0,0,0,8,8,8,,,,,,,,,0,5,5,3,54.00152300018817,,,,,,,,,,,,,,,,,53.98555330000818,54.00152300018817,54.068186399992555,,,,,,,,,,,,,,,,,,,,,,,,,686480,1,2024-06-21_10h13.06.671,AB,2024.1.1,None,2024-06-21 10h13.15.421268 +0200,
single,dual,ANIMALS,XXDEERX,5555555,10,3,7,j,j,0,VYKXSPC,0,0,0,0,0,8,8,8,,,,,,,,,0,6,6,2,54.08521099993959,,,,,,,,,,,,,,,,,54.06844830000773,54.08521099993959,54.151651199907064,,,,,,,,,,,,,,,,,,,,,,,,,686480,1,2024-06-21_10h13.06.671,AB,2024.1.1,None,2024-06-21 10h13.15.421268 +0200,
single,dual,ANIMALS,XXDEERX,5555555,10,3,7,j,j,0,,0,0,0,0,0,8,8,8,,,,,,,,,,,,,,,,,,,,,,,,,,,,,,,,,,,,,,,,,,54.15173859987408,54.151776399929076,None,0,54.15195890003815,54.168169300071895,55.151624700054526,55.151624700054526,55.16821249993518,56.03647350007668,f,0,56.035058700013906,None,,686480,1,2024-06-21_10h13.06.671,AB,2024.1.1,None,2024-06-21 10h13.15.421268 +0200,
single,dual,PASS,XXFAILX,9999999,10,3,7,j,f,1,YGLMSFQ,0,0,0,0,0,9,9,9,,,,,0,0,0,1,,,,,58.921333599835634,,,,,,,,,,,56.03690809989348,56.05152910016477,57.052022700197995,57.052022700197995,58.08984170015901,58.035802400205284,58.70201910007745,58.71848929999396,58.78557869978249,58.7856340999715,58.8018136001192,58.868575000204146,58.912643999792635,58.921333599835634,58.951801099814475,,,,,,,,,,,,,,,,,,,686480,1,2024-06-21_10h13.06.671,AB,2024.1.1,None,2024-06-21 10h13.15.421268 +0200,
single,dual,PASS,XXFAILX,9999999,10,3,7,j,f,1,ZTFYDXH,0,0,0,0,0,9,9,9,,,,,0,1,1,0,,,,,58.96860700007528,,,,,,,,,,,,,,,,,,,,,,,58.95204450003803,58.96860700007528,59.03521479992196,,,,,,,,,,,,,,,,,,,686480,1,2024-06-21_10h13.06.671,AB,2024.1.1,None,2024-06-21 10h13.15.421268 +0200,
single,dual,PASS,XXFAILX,9999999,10,3,7,j,f,1,HLFPYXK,0,0,0,0,0,9,9,9,,,,,,,,,0,0,0,4,59.1741504999809,,,,,,,,,,,,,,,,,59.16457509994507,59.1741504999809,59.201802500057966,,,,,,,59.035297700203955,59.05211910000071,59.118666499853134,,,,,,,,,,,,,,,,686480,1,2024-06-21_10h13.06.671,AB,2024.1.1,None,2024-06-21 10h13.15.421268 +0200,
single,dual,PASS,XXFAILX,9999999,10,3,7,j,f,1,ZJTSHFP,0,0,0,0,0,9,9,9,,,,,,,,,0,1,1,3,59.2185467001982,,,,,,,,,,,,,,,,,59.202048500068486,59.2185467001982,59.28515079990029,,,,,,,,,,,,,,,,,,,,,,,,,686480,1,2024-06-21_10h13.06.671,AB,2024.1.1,None,2024-06-21 10h13.15.421268 +0200,
single,dual,PASS,XXFAILX,9999999,10,3,7,j,f,1,ZTFYDXH,0,0,0,0,0,9,9,9,,,,,,,,,0,2,2,0,59.30217280006036,,,,,,,,,,,,,,,,,59.285395899787545,59.30217280006036,59.368441000115126,,,,,,,,,,,,,,,,,,,,,,,,,686480,1,2024-06-21_10h13.06.671,AB,2024.1.1,None,2024-06-21 10h13.15.421268 +0200,
single,dual,PASS,XXFAILX,9999999,10,3,7,j,f,1,WMYFTGJ,0,0,0,0,0,9,9,9,,,,,,,,,0,3,3,6,59.38515509990975,,,,,,,,,,,,,,,,,59.36868100007996,59.38515509990975,59.45226819999516,,,,,,,,,,,,,,,,,,,,,,,,,686480,1,2024-06-21_10h13.06.671,AB,2024.1.1,None,2024-06-21 10h13.15.421268 +0200,
single,dual,PASS,XXFAILX,9999999,10,3,7,j,f,1,YGLMSFQ,0,0,0,0,0,9,9,9,,,,,,,,,0,4,4,1,59.46838159998879,,,,,,,,,,,,,,,,,59.452545300126076,59.46838159998879,59.53526399983093,,,,,,,,,,,,,,,,,,,,,,,,,686480,1,2024-06-21_10h13.06.671,AB,2024.1.1,None,2024-06-21 10h13.15.421268 +0200,
single,dual,PASS,XXFAILX,9999999,10,3,7,j,f,1,GQKRPDL,0,0,0,0,0,9,9,9,,,,,,,,,0,5,5,5,59.55218630004674,,,,,,,,,,,,,,,,,59.5355214998126,59.55218630004674,59.6188550000079,,,,,,,,,,,,,,,,,,,,,,,,,686480,1,2024-06-21_10h13.06.671,AB,2024.1.1,None,2024-06-21 10h13.15.421268 +0200,
single,dual,PASS,XXFAILX,9999999,10,3,7,j,f,1,VYKXSPC,0,0,0,0,0,9,9,9,,,,,,,,,0,6,6,2,59.63514559995383,,,,,,,,,,,,,,,,,59.619113500230014,59.63514559995383,59.702261900063604,,,,,,,,,,,,,,,,,,,,,,,,,686480,1,2024-06-21_10h13.06.671,AB,2024.1.1,None,2024-06-21 10h13.15.421268 +0200,
single,dual,PASS,XXFAILX,9999999,10,3,7,j,f,1,,0,0,0,0,0,9,9,9,,,,,,,,,,,,,,,,,,,,,,,,,,,,,,,,,,,,,,,,,,59.70235020015389,59.70238499995321,None,0,59.702578499913216,59.718448100145906,60.702225000131875,60.702225000131875,60.71851720008999,61.26925850007683,f,1,61.26590579980984,None,,686480,1,2024-06-21_10h13.06.671,AB,2024.1.1,None,2024-06-21 10h13.15.421268 +0200,
single,dual,AUNT,XQUEENX,1111111,10,3,7,j,j,0,YGLMSFQ,0,0,0,0,0,10,10,10,,,,,0,0,0,1,,,,,64.15707600023597,,,,,,,,,,,61.26970120007172,61.28520020004362,62.26875439984724,62.285303900018334,63.30759709980339,63.25240480015054,63.93563009984791,63.95237269997597,64.01918289996684,64.01923689991236,64.03545009996742,64.10243020020425,64.1479421001859,64.15707600023597,64.18545849993825,,,,,,,,,,,,,,,,,,,686480,1,2024-06-21_10h13.06.671,AB,2024.1.1,None,2024-06-21 10h13.15.421268 +0200,
single,dual,AUNT,XQUEENX,1111111,10,3,7,j,j,0,ZTFYDXH,0,0,0,0,0,10,10,10,,,,,0,1,1,0,,,,,64.20201729983091,,,,,,,,,,,,,,,,,,,,,,,64.1857035998255,64.20201729983091,64.26915370021015,,,,,,,,,,,,,,,,,,,686480,1,2024-06-21_10h13.06.671,AB,2024.1.1,None,2024-06-21 10h13.15.421268 +0200,
single,dual,AUNT,XQUEENX,1111111,10,3,7,j,j,0,GQKRPDL,0,0,0,0,0,10,10,10,,,,,,,,,0,0,0,5,64.4067318001762,,,,,,,,,,,,,,,,,64.39741380000487,64.4067318001762,64.43541380017996,,,,,,,64.26923670014367,64.28543929988518,64.35252430010587,,,,,,,,,,,,,,,,686480,1,2024-06-21_10h13.06.671,AB,2024.1.1,None,2024-06-21 10h13.15.421268 +0200,
single,dual,AUNT,XQUEENX,1111111,10,3,7,j,j,0,WMYFTGJ,0,0,0,0,0,10,10,10,,,,,,,,,0,1,1,6,64.45203689998016,,,,,,,,,,,,,,,,,64.43565709982067,64.45203689998016,64.51924809999764,,,,,,,,,,,,,,,,,,,,,,,,,686480,1,2024-06-21_10h13.06.671,AB,2024.1.1,None,2024-06-21 10h13.15.421268 +0200,
single,dual,AUNT,XQUEENX,1111111,10,3,7,j,j,0,HLFPYXK,0,0,0,0,0,10,10,10,,,,,,,,,0,2,2,4,64.5354679999873,,,,,,,,,,,,,,,,,64.51950920000672,64.5354679999873,64.60257579991594,,,,,,,,,,,,,,,,,,,,,,,,,686480,1,2024-06-21_10h13.06.671,AB,2024.1.1,None,2024-06-21 10h13.15.421268 +0200,
single,dual,AUNT,XQUEENX,1111111,10,3,7,j,j,0,ZTFYDXH,0,0,0,0,0,10,10,10,,,,,,,,,0,3,3,0,64.61872929986566,,,,,,,,,,,,,,,,,64.60284439986572,64.61872929986566,64.68543059984222,,,,,,,,,,,,,,,,,,,,,,,,,686480,1,2024-06-21_10h13.06.671,AB,2024.1.1,None,2024-06-21 10h13.15.421268 +0200,
single,dual,AUNT,XQUEENX,1111111,10,3,7,j,j,0,ZJTSHFP,0,0,0,0,0,10,10,10,,,,,,,,,0,4,4,3,64.70207849983126,,,,,,,,,,,,,,,,,64.68567579984665,64.70207849983126,64.76877319999039,,,,,,,,,,,,,,,,,,,,,,,,,686480,1,2024-06-21_10h13.06.671,AB,2024.1.1,None,2024-06-21 10h13.15.421268 +0200,
single,dual,AUNT,XQUEENX,1111111,10,3,7,j,j,0,VYKXSPC,0,0,0,0,0,10,10,10,,,,,,,,,0,5,5,2,64.78571509988979,,,,,,,,,,,,,,,,,64.76901380019262,64.78571509988979,64.8521141000092,,,,,,,,,,,,,,,,,,,,,,,,,686480,1,2024-06-21_10h13.06.671,AB,2024.1.1,None,2024-06-21 10h13.15.421268 +0200,
single,dual,AUNT,XQUEENX,1111111,10,3,7,j,j,0,YGLMSFQ,0,0,0,0,0,10,10,10,,,,,,,,,0,6,6,1,64.86902520013973,,,,,,,,,,,,,,,,,64.8523691999726,64.86902520013973,64.93544329982251,,,,,,,,,,,,,,,,,,,,,,,,,686480,1,2024-06-21_10h13.06.671,AB,2024.1.1,None,2024-06-21 10h13.15.421268 +0200,
single,dual,AUNT,XQUEENX,1111111,10,3,7,j,j,0,,0,0,0,0,0,10,10,10,,,,,,,,,,,,,,,,,,,,,,,,,,,,,,,,,,,,,,,,,,64.93552449997514,64.93556579994038,None,0,64.9357397002168,64.9520351998508,65.9354491000995,65.9354491000995,65.95211199996993,67.2863214998506,j,1,67.28226839983836,None,,686480,1,2024-06-21_10h13.06.671,AB,2024.1.1,None,2024-06-21 10h13.15.421268 +0200,
single,dual,DEEP,XXDOLLX,0,10,3,7,f,j,0,YGLMSFQ,0,0,0,0,0,11,11,11,,,,,0,0,0,1,,,,,70.17859609983861,,,,,,,,,,,67.28676730021834,67.30222500022501,68.30226270016283,68.30226270016283,69.34183129994199,69.2859714999795,69.9526104000397,69.9689279999584,70.03615739988163,70.03621040005237,70.05235309991986,70.11905930005014,70.16944940015674,70.17859609983861,70.20285020023584,,,,,,,,,,,,,,,,,,,686480,1,2024-06-21_10h13.06.671,AB,2024.1.1,None,2024-06-21 10h13.15.421268 +0200,
single,dual,DEEP,XXDOLLX,0,10,3,7,f,j,0,ZTFYDXH,0,0,0,0,0,11,11,11,,,,,0,1,1,0,,,,,70.21902390010655,,,,,,,,,,,,,,,,,,,,,,,70.20311670005322,70.21902390010655,70.28621440008283,,,,,,,,,,,,,,,,,,,686480,1,2024-06-21_10h13.06.671,AB,2024.1.1,None,2024-06-21 10h13.15.421268 +0200,
single,dual,DEEP,XXDOLLX,0,10,3,7,f,j,0,YGLMSFQ,0,0,0,0,0,11,11,11,,,,,,,,,0,0,0,1,70.42310399981216,,,,,,,,,,,,,,,,,70.41395690012723,70.42310399981216,70.45273629995063,,,,,,,70.28630559984595,70.30232100002468,70.36911639990285,,,,,,,,,,,,,,,,686480,1,2024-06-21_10h13.06.671,AB,2024.1.1,None,2024-06-21 10h13.15.421268 +0200,
single,dual,DEEP,XXDOLLX,0,10,3,7,f,j,0,HLFPYXK,0,0,0,0,0,11,11,11,,,,,,,,,0,1,1,4,70.46899690013379,,,,,,,,,,,,,,,,,70.45299099991098,70.46899690013379,70.5363080999814,,,,,,,,,,,,,,,,,,,,,,,,,686480,1,2024-06-21_10h13.06.671,AB,2024.1.1,None,2024-06-21 10h13.15.421268 +0200,
single,dual,DEEP,XXDOLLX,0,10,3,7,f,j,0,ZJTSHFP,0,0,0,0,0,11,11,11,,,,,,,,,0,2,2,3,70.55236130021513,,,,,,,,,,,,,,,,,70.53657320002094,70.55236130021513,70.61907429993153,,,,,,,,,,,,,,,,,,,,,,,,,686480,1,2024-06-21_10h13.06.671,AB,2024.1.1,None,2024-06-21 10h13.15.421268 +0200,
single,dual,DEEP,XXDOLLX,0,10,3,7,f,j,0,VYKXSPC,0,0,0,0,0,11,11,11,,,,,,,,,0,3,3,2,70.63610030012205,,,,,,,,,,,,,,,,,70.61932699987665,70.63610030012205,70.70239500002936,,,,,,,,,,,,,,,,,,,,,,,,,686480,1,2024-06-21_10h13.06.671,AB,2024.1.1,None,2024-06-21 10h13.15.421268 +0200,
single,dual,DEEP,XXDOLLX,0,10,3,7,f,j,0,GQKRPDL,0,0,0,0,0,11,11,11,,,,,,,,,0,4,4,5,70.71908750012517,,,,,,,,,,,,,,,,,70.70263990014791,70.71908750012517,70.78622889984399,,,,,,,,,,,,,,,,,,,,,,,,,686480,1,2024-06-21_10h13.06.671,AB,2024.1.1,None,2024-06-21 10h13.15.421268 +0200,
single,dual,DEEP,XXDOLLX,0,10,3,7,f,j,0,WMYFTGJ,0,0,0,0,0,11,11,11,,,,,,,,,0,5,5,6,70.80235939985141,,,,,,,,,,,,,,,,,70.78648719983175,70.80235939985141,70.86939430003986,,,,,,,,,,,,,,,,,,,,,,,,,686480,1,2024-06-21_10h13.06.671,AB,2024.1.1,None,2024-06-21 10h13.15.421268 +0200,
single,dual,DEEP,XXDOLLX,0,10,3,7,f,j,0,ZTFYDXH,0,0,0,0,0,11,11,11,,,,,,,,,0,6,6,0,70.88610199978575,,,,,,,,,,,,,,,,,70.86966300010681,70.88610199978575,70.95241530006751,,,,,,,,,,,,,,,,,,,,,,,,,686480,1,2024-06-21_10h13.06.671,AB,2024.1.1,None,2024-06-21 10h13.15.421268 +0200,
single,dual,DEEP,XXDOLLX,0,10,3,7,f,j,0,,0,0,0,0,0,11,11,11,,,,,,,,,,,,,,,,,,,,,,,,,,,,,,,,,,,,,,,,,,70.95249880012125,70.95253300014883,None,0,70.95271740015596,70.96908040018752,71.9524065000005,71.9524065000005,71.96912840008736,72.73693619994447,j,1,72.72211290011182,None,,686480,1,2024-06-21_10h13.06.671,AB,2024.1.1,None,2024-06-21 10h13.15.421268 +0200,
single,dual,HER,XXSAVEX,3333333,7,7,6,j,j,0,ZTFYDXH,0,0,0,0,0,12,12,12,,,,,0,0,0,0,,,,,75.37648480013013,,,,,,,,,,,72.73738550022244,72.75252470001578,73.75295029999688,73.75295029999688,74.79066810011864,74.73634689999744,75.15333050023764,75.16929480014369,75.23603220004588,75.23608659999445,75.25300389993936,75.31933660013601,75.36989849992096,75.37648480013013,75.40308560011908,,,,,,,,,,,,,,,,,,,686480,1,2024-06-21_10h13.06.671,AB,2024.1.1,None,2024-06-21 10h13.15.421268 +0200,
single,dual,HER,XXSAVEX,3333333,7,7,6,j,j,0,YGLMSFQ,0,0,0,0,0,12,12,12,,,,,0,1,1,1,,,,,75.41929139988497,,,,,,,,,,,,,,,,,,,,,,,75.40334219997749,75.41929139988497,75.48604850005358,,,,,,,,,,,,,,,,,,,686480,1,2024-06-21_10h13.06.671,AB,2024.1.1,None,2024-06-21 10h13.15.421268 +0200,
single,dual,HER,XXSAVEX,3333333,7,7,6,j,j,0,ZJTSHFP,0,0,0,0,0,12,12,12,,,,,0,2,2,3,,,,,75.50307370023802,,,,,,,,,,,,,,,,,,,,,,,75.48630389990285,75.50307370023802,75.56939679989591,,,,,,,,,,,,,,,,,,,686480,1,2024-06-21_10h13.06.671,AB,2024.1.1,None,2024-06-21 10h13.15.421268 +0200,
single,dual,HER,XXSAVEX,3333333,7,7,6,j,j,0,VYKXSPC,0,0,0,0,0,12,12,12,,,,,0,3,3,2,,,,,75.58592909993604,,,,,,,,,,,,,,,,,,,,,,,75.56964650005102,75.58592909993604,75.65310950018466,,,,,,,,,,,,,,,,,,,686480,1,2024-06-21_10h13.06.671,AB,2024.1.1,None,2024-06-21 10h13.15.421268 +0200,
single,dual,HER,XXSAVEX,3333333,7,7,6,j,j,0,HLFPYXK,0,0,0,0,0,12,12,12,,,,,0,4,4,4,,,,,75.66936769988388,,,,,,,,,,,,,,,,,,,,,,,75.65337979979813,75.66936769988388,75.73616209998727,,,,,,,,,,,,,,,,,,,686480,1,2024-06-21_10h13.06.671,AB,2024.1.1,None,2024-06-21 10h13.15.421268 +0200,
single,dual,HER,XXSAVEX,3333333,7,7,6,j,j,0,GQKRPDL,0,0,0,0,0,12,12,12,,,,,0,5,5,5,,,,,75.79812789987773,,,,,,,,,,,,,,,,,,,,,,,75.73640380008146,75.79812789987773,75.81932580005378,,,,,,,,,,,,,,,,,,,686480,1,2024-06-21_10h13.06.671,AB,2024.1.1,None,2024-06-21 10h13.15.421268 +0200,
single,dual,HER,XXSAVEX,3333333,7,7,6,j,j,0,HLFPYXK,0,0,0,0,0,12,12,12,,,,,,,,,0,0,0,4,75.95714960014448,,,,,,,,,,,,,,,,,75.94785090023652,75.95714960014448,75.98649200005457,,,,,,,75.81940869987011,75.83596329996362,75.90371260000393,,,,,,,,,,,,,,,,686480,1,2024-06-21_10h13.06.671,AB,2024.1.1,None,2024-06-21 10h13.15.421268 +0200,
single,dual,HER,XXSAVEX,3333333,7,7,6,j,j,0,ZJTSHFP,0,0,0,0,0,12,12,12,,,,,,,,,0,1,1,3,76.00267390022054,,,,,,,,,,,,,,,,,75.98678639996797,76.00267390022054,76.06945199985057,,,,,,,,,,,,,,,,,,,,,,,,,686480,1,2024-06-21_10h13.06.671,AB,2024.1.1,None,2024-06-21 10h13.15.421268 +0200,
single,dual,HER,XXSAVEX,3333333,7,7,6,j,j,0,ZTFYDXH,0,0,0,0,0,12,12,12,,,,,,,,,0,2,2,0,76.0860546999611,,,,,,,,,,,,,,,,,76.06969759985805,76.0860546999611,76.15318759996444,,,,,,,,,,,,,,,,,,,,,,,,,686480,1,2024-06-21_10h13.06.671,AB,2024.1.1,None,2024-06-21 10h13.15.421268 +0200,
single,dual,HER,XXSAVEX,3333333,7,7,6,j,j,0,YGLMSFQ,0,0,0,0,0,12,12,12,,,,,,,,,0,3,3,1,76.16940960008651,,,,,,,,,,,,,,,,,76.15345889981836,76.16940960008651,76.23659169999883,,,,,,,,,,,,,,,,,,,,,,,,,686480,1,2024-06-21_10h13.06.671,AB,2024.1.1,None,2024-06-21 10h13.15.421268 +0200,
single,dual,HER,XXSAVEX,3333333,7,7,6,j,j,0,VYKXSPC,0,0,0,0,0,12,12,12,,,,,,,,,0,4,4,2,76.2526980000548,,,,,,,,,,,,,,,,,76.23685520002618,76.2526980000548,76.31941060023382,,,,,,,,,,,,,,,,,,,,,,,,,686480,1,2024-06-21_10h13.06.671,AB,2024.1.1,None,2024-06-21 10h13.15.421268 +0200,
single,dual,HER,XXSAVEX,3333333,7,7,6,j,j,0,GQKRPDL,0,0,0,0,0,12,12,12,,,,,,,,,0,5,5,5,76.33600840019062,,,,,,,,,,,,,,,,,76.31966709997505,76.33600840019062,76.40290320012718,,,,,,,,,,,,,,,,,,,,,,,,,686480,1,2024-06-21_10h13.06.671,AB,2024.1.1,None,2024-06-21 10h13.15.421268 +0200,
single,dual,HER,XXSAVEX,3333333,7,7,6,j,j,0,,0,0,0,0,0,12,12,12,,,,,,,,,,,,,,,,,,,,,,,,,,,,,,,,,,,,,,,,,,76.40299279987812,76.40302979992703,None,0,76.40320749999955,76.41978489980102,77.40270220022649,77.40270220022649,77.41973719978705,77.70330809988081,j,1,77.6983012999408,None,,686480,1,2024-06-21_10h13.06.671,AB,2024.1.1,None,2024-06-21 10h13.15.421268 +0200,
single,dual,POSTER,XXSIGNX,2222222,10,3,7,f,f,1,ZTFYDXH,0,0,0,0,0,13,13,13,,,,,0,0,0,0,,,,,80.59036559984088,,,,,,,,,,,77.7037396999076,77.7198072001338,78.7028047000058,78.71988519979641,79.74053840013221,79.68652680004016,80.36991189979017,80.38626650022343,80.45295719988644,80.45301569998264,80.46992349997163,80.53631930006668,80.58128800010309,80.59036559984088,80.62003100011498,,,,,,,,,,,,,,,,,,,686480,1,2024-06-21_10h13.06.671,AB,2024.1.1,None,2024-06-21 10h13.15.421268 +0200,
single,dual,POSTER,XXSIGNX,2222222,10,3,7,f,f,1,YGLMSFQ,0,0,0,0,0,13,13,13,,,,,0,1,1,1,,,,,80.63625709991902,,,,,,,,,,,,,,,,,,,,,,,80.62029200000688,80.63625709991902,80.70288710016757,,,,,,,,,,,,,,,,,,,686480,1,2024-06-21_10h13.06.671,AB,2024.1.1,None,2024-06-21 10h13.15.421268 +0200,
single,dual,POSTER,XXSIGNX,2222222,10,3,7,f,f,1,ZJTSHFP,0,0,0,0,0,13,13,13,,,,,,,,,0,0,0,3,80.84079220006242,,,,,,,,,,,,,,,,,80.83154689986259,80.84079220006242,80.86998589988798,,,,,,,80.70296749984846,80.71992859989405,80.78671539993957,,,,,,,,,,,,,,,,686480,1,2024-06-21_10h13.06.671,AB,2024.1.1,None,2024-06-21 10h13.15.421268 +0200,
single,dual,POSTER,XXSIGNX,2222222,10,3,7,f,f,1,WMYFTGJ,0,0,0,0,0,13,13,13,,,,,,,,,0,1,1,6,80.88621459994465,,,,,,,,,,,,,,,,,80.87024459987879,80.88621459994465,80.95297250011936,,,,,,,,,,,,,,,,,,,,,,,,,686480,1,2024-06-21_10h13.06.671,AB,2024.1.1,None,2024-06-21 10h13.15.421268 +0200,
single,dual,POSTER,XXSIGNX,2222222,10,3,7,f,f,1,YGLMSFQ,0,0,0,0,0,13,13,13,,,,,,,,,0,2,2,1,80.9699325999245,,,,,,,,,,,,,,,,,80.95321720000356,80.9699325999245,81.03676360007375,,,,,,,,,,,,,,,,,,,,,,,,,686480,1,2024-06-21_10h13.06.671,AB,2024.1.1,None,2024-06-21 10h13.15.421268 +0200,
single,dual,POSTER,XXSIGNX,2222222,10,3,7,f,f,1,HLFPYXK,0,0,0,0,0,13,13,13,,,,,,,,,0,3,3,4,81.05292249983177,,,,,,,,,,,,,,,,,81.03702360019088,81.05292249983177,81.1200590999797,,,,,,,,,,,,,,,,,,,,,,,,,686480,1,2024-06-21_10h13.06.671,AB,2024.1.1,None,2024-06-21 10h13.15.421268 +0200,
single,dual,POSTER,XXSIGNX,2222222,10,3,7,f,f,1,ZTFYDXH,0,0,0,0,0,13,13,13,,,,,,,,,0,4,4,0,81.13626749999821,,,,,,,,,,,,,,,,,81.12031849985942,81.13626749999821,81.20316040003672,,,,,,,,,,,,,,,,,,,,,,,,,686480,1,2024-06-21_10h13.06.671,AB,2024.1.1,None,2024-06-21 10h13.15.421268 +0200,
single,dual,POSTER,XXSIGNX,2222222,10,3,7,f,f,1,GQKRPDL,0,0,0,0,0,13,13,13,,,,,,,,,0,5,5,5,81.22003690013662,,,,,,,,,,,,,,,,,81.20341320009902,81.22003690013662,81.28668490005657,,,,,,,,,,,,,,,,,,,,,,,,,686480,1,2024-06-21_10h13.06.671,AB,2024.1.1,None,2024-06-21 10h13.15.421268 +0200,
single,dual,POSTER,XXSIGNX,2222222,10,3,7,f,f,1,VYKXSPC,0,0,0,0,0,13,13,13,,,,,,,,,0,6,6,2,81.30295940022916,,,,,,,,,,,,,,,,,81.28694899985567,81.30295940022916,81.37022109981626,,,,,,,,,,,,,,,,,,,,,,,,,686480,1,2024-06-21_10h13.06.671,AB,2024.1.1,None,2024-06-21 10h13.15.421268 +0200,
single,dual,POSTER,XXSIGNX,2222222,10,3,7,f,f,1,,0,0,0,0,0,13,13,13,,,,,,,,,,,,,,,,,,,,,,,,,,,,,,,,,,,,,,,,,,81.37030920013785,81.37034370005131,None,0,81.37054440006614,81.38628009986132,82.37003719992936,82.37003719992936,82.38644000003114,82.6706901001744,f,1,82.65775849996135,None,,686480,1,2024-06-21_10h13.06.671,AB,2024.1.1,None,2024-06-21 10h13.15.421268 +0200,
single,dual,BAG,XXSACKX,9999999,10,7,3,j,f,1,HLFPYXK,0,0,0,0,0,14,14,14,,,,,0,0,0,4,,,,,85.55708120018244,,,,,,,,,,,82.67111789993942,82.68646020023152,83.68642080016434,83.68642080016434,84.72458089981228,84.67022449988872,85.3374366001226,85.35315949982032,85.42012069979683,85.42017510021105,85.436892000027,85.50324339978397,85.5480049001053,85.55708120018244,85.58745039999485,,,,,,,,,,,,,,,,,,,686480,1,2024-06-21_10h13.06.671,AB,2024.1.1,None,2024-06-21 10h13.15.421268 +0200,
single,dual,BAG,XXSACKX,9999999,10,7,3,j,f,1,ZJTSHFP,0,0,0,0,0,14,14,14,,,,,0,1,1,3,,,,,85.60313299996778,,,,,,,,,,,,,,,,,,,,,,,85.58777800016105,85.60313299996778,85.66989920008928,,,,,,,,,,,,,,,,,,,686480,1,2024-06-21_10h13.06.671,AB,2024.1.1,None,2024-06-21 10h13.15.421268 +0200,
single,dual,BAG,XXSACKX,9999999,10,7,3,j,f,1,GQKRPDL,0,0,0,0,0,14,14,14,,,,,0,2,2,5,,,,,85.6868742001243,,,,,,,,,,,,,,,,,,,,,,,85.67014629999176,85.6868742001243,85.75348490010947,,,,,,,,,,,,,,,,,,,686480,1,2024-06-21_10h13.06.671,AB,2024.1.1,None,2024-06-21 10h13.15.421268 +0200,
single,dual,BAG,XXSACKX,9999999,10,7,3,j,f,1,VYKXSPC,0,0,0,0,0,14,14,14,,,,,0,3,3,2,,,,,85.7702159001492,,,,,,,,,,,,,,,,,,,,,,,85.75373859982938,85.7702159001492,85.83700550021604,,,,,,,,,,,,,,,,,,,686480,1,2024-06-21_10h13.06.671,AB,2024.1.1,None,2024-06-21 10h13.15.421268 +0200,
single,dual,BAG,XXSACKX,9999999,10,7,3,j,f,1,YGLMSFQ,0,0,0,0,0,14,14,14,,,,,0,4,4,1,,,,,85.85310140019283,,,,,,,,,,,,,,,,,,,,,,,85.83725919993594,85.85310140019283,85.92005399987102,,,,,,,,,,,,,,,,,,,686480,1,2024-06-21_10h13.06.671,AB,2024.1.1,None,2024-06-21 10h13.15.421268 +0200,
single,dual,BAG,XXSACKX,9999999,10,7,3,j,f,1,ZTFYDXH,0,0,0,0,0,14,14,14,,,,,0,5,5,0,,,,,85.93650470022112,,,,,,,,,,,,,,,,,,,,,,,85.9203031999059,85.93650470022112,86.00326430005953,,,,,,,,,,,,,,,,,,,686480,1,2024-06-21_10h13.06.671,AB,2024.1.1,None,2024-06-21 10h13.15.421268 +0200,
single,dual,BAG,XXSACKX,9999999,10,7,3,j,f,1,ZTFYDXH,0,0,0,0,0,14,14,14,,,,,,,,,0,0,0,0,86.14190739998594,,,,,,,,,,,,,,,,,86.13229390000924,86.14190739998594,86.16997000016272,,,,,,,86.00335469981655,86.01985350018367,86.087169600185,,,,,,,,,,,,,,,,686480,1,2024-06-21_10h13.06.671,AB,2024.1.1,None,2024-06-21 10h13.15.421268 +0200,
single,dual,BAG,XXSACKX,9999999,10,7,3,j,f,1,VYKXSPC,0,0,0,0,0,14,14,14,,,,,,,,,0,1,1,2,86.18653259985149,,,,,,,,,,,,,,,,,86.1702119000256,86.18653259985149,86.25338489981368,,,,,,,,,,,,,,,,,,,,,,,,,686480,1,2024-06-21_10h13.06.671,AB,2024.1.1,None,2024-06-21 10h13.15.421268 +0200,
single,dual,BAG,XXSACKX,9999999,10,7,3,j,f,1,YGLMSFQ,0,0,0,0,0,14,14,14,,,,,,,,,0,2,2,1,86.26988680008799,,,,,,,,,,,,,,,,,86.25366810010746,86.26988680008799,86.33771170023829,,,,,,,,,,,,,,,,,,,,,,,,,686480,1,2024-06-21_10h13.06.671,AB,2024.1.1,None,2024-06-21 10h13.15.421268 +0200,
single,dual,BAG,XXSACKX,9999999,10,7,3,j,f,1,,0,0,0,0,0,14,14,14,,,,,,,,,,,,,,,,,,,,,,,,,,,,,,,,,,,,,,,,,,86.33781220018864,86.3378526000306,None,0,86.3380816001445,86.35359090007842,87.35324010020122,87.35324010020122,87.35324010020122,87.62053720001131,f,1,87.6178962001577,None,,686480,1,2024-06-21_10h13.06.671,AB,2024.1.1,None,2024-06-21 10h13.15.421268 +0200,
single,dual,ACNE,XPIMPLE,4444444,10,1,9,f,f,1,,0,0,0,0,0,15,15,15,,,,,0,0,0,0,,,,,90.50984100019559,,,,,,,,,,,87.62096600001678,87.63664539996535,88.61998749990016,88.63705779984593,89.65777159994468,89.60423009982333,90.28701950004324,90.30345139978454,90.37014390015975,90.37019560020417,90.38672700012103,90.45352379977703,90.49803909985349,,90.50090110022575,,,,,,,,,,,,,,,,,,89.80375149985775,686480,1,2024-06-21_10h13.06.671,AB,2024.1.1,None,2024-06-21 10h13.15.421268 +0200,
single,dual,ACNE,XPIMPLE,4444444,10,1,9,f,f,1,GQKRPDL,0,0,0,0,0,15,15,15,,,,,,,,,0,0,0,5,90.63846469996497,,,,,,,,,,,,,,,,,90.6319079999812,90.63846469996497,90.6702164998278,,,,,,,90.50097359996289,90.50984100019559,90.58681340003386,,,,,,,,,,,,,,,,686480,1,2024-06-21_10h13.06.671,AB,2024.1.1,None,2024-06-21 10h13.15.421268 +0200,
single,dual,ACNE,XPIMPLE,4444444,10,1,9,f,f,1,WMYFTGJ,0,0,0,0,0,15,15,15,,,,,,,,,0,1,1,6,90.68711750023067,,,,,,,,,,,,,,,,,90.67045899992809,90.68711750023067,90.75397610012442,,,,,,,,,,,,,,,,,,,,,,,,,686480,1,2024-06-21_10h13.06.671,AB,2024.1.1,None,2024-06-21 10h13.15.421268 +0200,
single,dual,ACNE,XPIMPLE,4444444,10,1,9,f,f,1,VFDMHQS,0,0,0,0,0,15,15,15,,,,,,,,,0,2,2,8,90.77008320018649,,,,,,,,,,,,,,,,,90.75424019992352,90.77008320018649,90.83714699978009,,,,,,,,,,,,,,,,,,,,,,,,,686480,1,2024-06-21_10h13.06.671,AB,2024.1.1,None,2024-06-21 10h13.15.421268 +0200,
single,dual,ACNE,XPIMPLE,4444444,10,1,9,f,f,1,HLFPYXK,0,0,0,0,0,15,15,15,,,,,,,,,0,3,3,4,90.85380280017853,,,,,,,,,,,,,,,,,90.83740450022742,90.85380280017853,90.9202979998663,,,,,,,,,,,,,,,,,,,,,,,,,686480,1,2024-06-21_10h13.06.671,AB,2024.1.1,None,2024-06-21 10h13.15.421268 +0200,
single,dual,ACNE,XPIMPLE,4444444,10,1,9,f,f,1,YNPLRQW,0,0,0,0,0,15,15,15,,,,,,,,,0,4,4,7,90.9371744999662,,,,,,,,,,,,,,,,,90.92057109996676,90.9371744999662,91.00394000019878,,,,,,,,,,,,,,,,,,,,,,,,,686480,1,2024-06-21_10h13.06.671,AB,2024.1.1,None,2024-06-21 10h13.15.421268 +0200,
single,dual,ACNE,XPIMPLE,4444444,10,1,9,f,f,1,ZJTSHFP,0,0,0,0,0,15,15,15,,,,,,,,,0,5,5,3,91.02015460003167,,,,,,,,,,,,,,,,,91.00418720021844,91.02015460003167,91.08683479996398,,,,,,,,,,,,,,,,,,,,,,,,,686480,1,2024-06-21_10h13.06.671,AB,2024.1.1,None,2024-06-21 10h13.15.421268 +0200,
single,dual,ACNE,XPIMPLE,4444444,10,1,9,f,f,1,VYKXSPC,0,0,0,0,0,15,15,15,,,,,,,,,0,6,6,2,91.10381919983774,,,,,,,,,,,,,,,,,91.0870734998025,91.10381919983774,91.17036959994584,,,,,,,,,,,,,,,,,,,,,,,,,686480,1,2024-06-21_10h13.06.671,AB,2024.1.1,None,2024-06-21 10h13.15.421268 +0200,
single,dual,ACNE,XPIMPLE,4444444,10,1,9,f,f,1,ZTFYDXH,0,0,0,0,0,15,15,15,,,,,,,,,0,7,7,0,91.18678790004924,,,,,,,,,,,,,,,,,91.17064259992912,91.18678790004924,91.2540207002312,,,,,,,,,,,,,,,,,,,,,,,,,686480,1,2024-06-21_10h13.06.671,AB,2024.1.1,None,2024-06-21 10h13.15.421268 +0200,
single,dual,ACNE,XPIMPLE,4444444,10,1,9,f,f,1,YGLMSFQ,0,0,0,0,0,15,15,15,,,,,,,,,0,8,8,1,91.27037320006639,,,,,,,,,,,,,,,,,91.25429189996794,91.27037320006639,91.33692910009995,,,,,,,,,,,,,,,,,,,,,,,,,686480,1,2024-06-21_10h13.06.671,AB,2024.1.1,None,2024-06-21 10h13.15.421268 +0200,
single,dual,ACNE,XPIMPLE,4444444,10,1,9,f,f,1,,0,0,0,0,0,15,15,15,,,,,,,,,,,,,,,,,,,,,,,,,,,,,,,,,,,,,,,,,,91.33701359992847,91.3370480001904,None,0,91.3372349999845,91.35346159990877,92.33681479981169,92.33681479981169,92.35413260012865,92.83797679981217,j,0,92.83433779980987,None,,686480,1,2024-06-21_10h13.06.671,AB,2024.1.1,None,2024-06-21 10h13.15.421268 +0200,
single,dual,MILK,XBRUSHX,6666666,10,1,9,f,j,0,,0,0,0,0,0,16,16,16,,,,,0,0,0,0,,,,,95.7273357999511,,,,,,,,,,,92.83842189982533,92.85389340016991,93.83695469982922,93.85358629981056,94.87497580004856,94.82082779984921,95.50410139979795,95.52072250004858,95.58713580016047,95.58719180012122,95.6037504998967,95.67087560007349,95.71580549981445,,95.71876099985093,,,,,,,,,,,,,,,,,,,686480,1,2024-06-21_10h13.06.671,AB,2024.1.1,None,2024-06-21 10h13.15.421268 +0200,
single,dual,MILK,XBRUSHX,6666666,10,1,9,f,j,0,VFDMHQS,0,0,0,0,0,16,16,16,,,,,,,,,0,0,0,8,95.8582998001948,,,,,,,,,,,,,,,,,95.84914800012484,95.8582998001948,95.88710250006989,,,,,,,95.71882290020585,95.7273357999511,95.80371870007366,,,,,,,,,,,,,,,,686480,1,2024-06-21_10h13.06.671,AB,2024.1.1,None,2024-06-21 10h13.15.421268 +0200,
single,dual,MILK,XBRUSHX,6666666,10,1,9,f,j,0,WMYFTGJ,0,0,0,0,0,16,16,16,,,,,,,,,0,1,1,6,95.90372820012271,,,,,,,,,,,,,,,,,95.88734170002863,95.90372820012271,95.97113500023261,,,,,,,,,,,,,,,,,,,,,,,,,686480,1,2024-06-21_10h13.06.671,AB,2024.1.1,None,2024-06-21 10h13.15.421268 +0200,
single,dual,MILK,XBRUSHX,6666666,10,1,9,f,j,0,YGLMSFQ,0,0,0,0,0,16,16,16,,,,,,,,,0,2,2,1,95.98717649979517,,,,,,,,,,,,,,,,,95.97141359979287,95.98717649979517,96.05372339999303,,,,,,,,,,,,,,,,,,,,,,,,,686480,1,2024-06-21_10h13.06.671,AB,2024.1.1,None,2024-06-21 10h13.15.421268 +0200,
single,dual,MILK,XBRUSHX,6666666,10,1,9,f,j,0,HLFPYXK,0,0,0,0,0,16,16,16,,,,,,,,,0,3,3,4,96.07072950014845,,,,,,,,,,,,,,,,,96.05397030012682,96.07072950014845,96.13715030020103,,,,,,,,,,,,,,,,,,,,,,,,,686480,1,2024-06-21_10h13.06.671,AB,2024.1.1,None,2024-06-21 10h13.15.421268 +0200,
single,dual,MILK,XBRUSHX,6666666,10,1,9,f,j,0,ZTFYDXH,0,0,0,0,0,16,16,16,,,,,,,,,0,4,4,0,96.1538150999695,,,,,,,,,,,,,,,,,96.13740709982812,96.1538150999695,96.22084830002859,,,,,,,,,,,,,,,,,,,,,,,,,686480,1,2024-06-21_10h13.06.671,AB,2024.1.1,None,2024-06-21 10h13.15.421268 +0200,
single,dual,MILK,XBRUSHX,6666666,10,1,9,f,j,0,ZJTSHFP,0,0,0,0,0,16,16,16,,,,,,,,,0,5,5,3,96.23708130000159,,,,,,,,,,,,,,,,,96.22110270010307,96.23708130000159,96.30382299982011,,,,,,,,,,,,,,,,,,,,,,,,,686480,1,2024-06-21_10h13.06.671,AB,2024.1.1,None,2024-06-21 10h13.15.421268 +0200,
single,dual,MILK,XBRUSHX,6666666,10,1,9,f,j,0,GQKRPDL,0,0,0,0,0,16,16,16,,,,,,,,,0,6,6,5,96.32073700008914,,,,,,,,,,,,,,,,,96.30407090019435,96.32073700008914,96.38722119992599,,,,,,,,,,,,,,,,,,,,,,,,,686480,1,2024-06-21_10h13.06.671,AB,2024.1.1,None,2024-06-21 10h13.15.421268 +0200,
single,dual,MILK,XBRUSHX,6666666,10,1,9,f,j,0,VYKXSPC,0,0,0,0,0,16,16,16,,,,,,,,,0,7,7,2,96.4037275002338,,,,,,,,,,,,,,,,,96.3874821998179,96.4037275002338,96.47092489991337,,,,,,,,,,,,,,,,,,,,,,,,,686480,1,2024-06-21_10h13.06.671,AB,2024.1.1,None,2024-06-21 10h13.15.421268 +0200,
single,dual,MILK,XBRUSHX,6666666,10,1,9,f,j,0,YNPLRQW,0,0,0,0,0,16,16,16,,,,,,,,,0,8,8,7,96.48712689988315,,,,,,,,,,,,,,,,,96.4711849000305,96.48712689988315,96.55382549995556,,,,,,,,,,,,,,,,,,,,,,,,,686480,1,2024-06-21_10h13.06.671,AB,2024.1.1,None,2024-06-21 10h13.15.421268 +0200,
single,dual,MILK,XBRUSHX,6666666,10,1,9,f,j,0,,0,0,0,0,0,16,16,16,,,,,,,,,,,,,,,,,,,,,,,,,,,,,,,,,,,,,,,,,,96.55391020001844,96.55394330015406,None,0,96.55412829993293,96.57079849997535,97.55382050015032,97.55382050015032,97.57049479987472,98.50449940003455,f,0,98.49806619994342,None,,686480,1,2024-06-21_10h13.06.671,AB,2024.1.1,None,2024-06-21 10h13.15.421268 +0200,
single,dual,SCREAM,XSTALEX,7777777,10,7,3,j,j,0,VYKXSPC,0,0,0,0,0,17,17,17,,,,,0,0,0,2,,,,,101.39217429980636,,,,,,,,,,,98.50492799980566,98.52104000002146,99.5038932999596,99.52062080008909,100.54215680016205,100.48775730002671,101.17093650018796,101.18773290002719,101.25416949996725,101.2542365998961,101.27108959993348,101.33781109983101,101.38356090011075,101.39217429980636,101.42076360015199,,,,,,,,,,,,,,,,,,,686480,1,2024-06-21_10h13.06.671,AB,2024.1.1,None,2024-06-21 10h13.15.421268 +0200,
single,dual,SCREAM,XSTALEX,7777777,10,7,3,j,j,0,HLFPYXK,0,0,0,0,0,17,17,17,,,,,0,1,1,4,,,,,101.43771470012143,,,,,,,,,,,,,,,,,,,,,,,101.42102620005608,101.43771470012143,101.50507909990847,,,,,,,,,,,,,,,,,,,686480,1,2024-06-21_10h13.06.671,AB,2024.1.1,None,2024-06-21 10h13.15.421268 +0200,
single,dual,SCREAM,XSTALEX,7777777,10,7,3,j,j,0,YGLMSFQ,0,0,0,0,0,17,17,17,,,,,0,2,2,1,,,,,101.52110480004922,,,,,,,,,,,,,,,,,,,,,,,101.50543500017375,101.52110480004922,101.58786540012807,,,,,,,,,,,,,,,,,,,686480,1,2024-06-21_10h13.06.671,AB,2024.1.1,None,2024-06-21 10h13.15.421268 +0200,
single,dual,SCREAM,XSTALEX,7777777,10,7,3,j,j,0,ZJTSHFP,0,0,0,0,0,17,17,17,,,,,0,3,3,3,,,,,101.60406820010394,,,,,,,,,,,,,,,,,,,,,,,101.58813170017675,101.60406820010394,101.67075640009716,,,,,,,,,,,,,,,,,,,686480,1,2024-06-21_10h13.06.671,AB,2024.1.1,None,2024-06-21 10h13.15.421268 +0200,
single,dual,SCREAM,XSTALEX,7777777,10,7,3,j,j,0,ZTFYDXH,0,0,0,0,0,17,17,17,,,,,0,4,4,0,,,,,101.6873731999658,,,,,,,,,,,,,,,,,,,,,,,101.6710075000301,101.6873731999658,101.75416669994593,,,,,,,,,,,,,,,,,,,686480,1,2024-06-21_10h13.06.671,AB,2024.1.1,None,2024-06-21 10h13.15.421268 +0200,
single,dual,SCREAM,XSTALEX,7777777,10,7,3,j,j,0,GQKRPDL,0,0,0,0,0,17,17,17,,,,,0,5,5,5,,,,,101.77072290005162,,,,,,,,,,,,,,,,,,,,,,,101.7544197998941,101.77072290005162,101.83794469991699,,,,,,,,,,,,,,,,,,,686480,1,2024-06-21_10h13.06.671,AB,2024.1.1,None,2024-06-21 10h13.15.421268 +0200,
single,dual,SCREAM,XSTALEX,7777777,10,7,3,j,j,0,VYKXSPC,0,0,0,0,0,17,17,17,,,,,,,,,0,0,0,2,101.97543510003015,,,,,,,,,,,,,,,,,101.96664889995009,101.97543510003015,102.0041594998911,,,,,,,101.83804430020973,101.8540107998997,101.92080279998481,,,,,,,,,,,,,,,,686480,1,2024-06-21_10h13.06.671,AB,2024.1.1,None,2024-06-21 10h13.15.421268 +0200,
single,dual,SCREAM,XSTALEX,7777777,10,7,3,j,j,0,ZTFYDXH,0,0,0,0,0,17,17,17,,,,,,,,,0,1,1,0,102.02073210012168,,,,,,,,,,,,,,,,,102.00441939989105,102.02073210012168,102.08785159979016,,,,,,,,,,,,,,,,,,,,,,,,,686480,1,2024-06-21_10h13.06.671,AB,2024.1.1,None,2024-06-21 10h13.15.421268 +0200,
single,dual,SCREAM,XSTALEX,7777777,10,7,3,j,j,0,YGLMSFQ,0,0,0,0,0,17,17,17,,,,,,,,,0,2,2,1,102.10426349984482,,,,,,,,,,,,,,,,,102.08811740018427,102.10426349984482,102.17093219980597,,,,,,,,,,,,,,,,,,,,,,,,,686480,1,2024-06-21_10h13.06.671,AB,2024.1.1,None,2024-06-21 10h13.15.421268 +0200,
single,dual,SCREAM,XSTALEX,7777777,10,7,3,j,j,0,,0,0,0,0,0,17,17,17,,,,,,,,,,,,,,,,,,,,,,,,,,,,,,,,,,,,,,,,,,102.1710185999982,102.17105280002579,None,0,102.17126790015027,102.18751349998638,103.17083529988304,103.17083529988304,103.18789999978617,104.05534410011023,j,1,104.05042950017378,None,,686480,1,2024-06-21_10h13.06.671,AB,2024.1.1,None,2024-06-21 10h13.15.421268 +0200,
single,dual,CUP,XSAUCER,7777777,10,1,9,j,f,1,,0,0,0,0,0,18,18,18,,,,,0,0,0,0,,,,,106.94444319978356,,,,,,,,,,,104.05578469997272,104.07083080010489,105.07088219979778,105.07088219979778,106.10953909996897,106.05473570013419,106.72127390000969,106.73760499991477,106.80478199990466,106.80483510019258,106.82099620020017,106.88781559979543,106.93328050011769,,106.93618270009756,,,,,,,,,,,,,,,,,,,686480,1,2024-06-21_10h13.06.671,AB,2024.1.1,None,2024-06-21 10h13.15.421268 +0200,
single,dual,CUP,XSAUCER,7777777,10,1,9,j,f,1,HLFPYXK,0,0,0,0,0,18,18,18,,,,,,,,,0,0,0,4,107.07300789980218,,,,,,,,,,,,,,,,,107.06618779990822,107.07300789980218,107.10443270020187,,,,,,,106.936246199999,106.94444319978356,107.02106080017984,,,,,,,,,,,,,,,,686480,1,2024-06-21_10h13.06.671,AB,2024.1.1,None,2024-06-21 10h13.15.421268 +0200,
single,dual,CUP,XSAUCER,7777777,10,1,9,j,f,1,ZJTSHFP,0,0,0,0,0,18,18,18,,,,,,,,,0,1,1,3,107.1213988000527,,,,,,,,,,,,,,,,,107.10467449994758,107.1213988000527,107.187699300237,,,,,,,,,,,,,,,,,,,,,,,,,686480,1,2024-06-21_10h13.06.671,AB,2024.1.1,None,2024-06-21 10h13.15.421268 +0200,
single,dual,CUP,XSAUCER,7777777,10,1,9,j,f,1,VYKXSPC,0,0,0,0,0,18,18,18,,,,,,,,,0,2,2,2,107.20470409980044,,,,,,,,,,,,,,,,,107.18794950004667,107.20470409980044,107.27104979986325,,,,,,,,,,,,,,,,,,,,,,,,,686480,1,2024-06-21_10h13.06.671,AB,2024.1.1,None,2024-06-21 10h13.15.421268 +0200,
single,dual,CUP,XSAUCER,7777777,10,1,9,j,f,1,GQKRPDL,0,0,0,0,0,18,18,18,,,,,,,,,0,3,3,5,107.28770030010492,,,,,,,,,,,,,,,,,107.27129640011117,107.28770030010492,107.35442150011659,,,,,,,,,,,,,,,,,,,,,,,,,686480,1,2024-06-21_10h13.06.671,AB,2024.1.1,None,2024-06-21 10h13.15.421268 +0200,
single,dual,CUP,XSAUCER,7777777,10,1,9,j,f,1,ZTFYDXH,0,0,0,0,0,18,18,18,,,,,,,,,0,4,4,0,107.37133669992909,,,,,,,,,,,,,,,,,107.35467199981213,107.37133669992909,107.4378255000338,,,,,,,,,,,,,,,,,,,,,,,,,686480,1,2024-06-21_10h13.06.671,AB,2024.1.1,None,2024-06-21 10h13.15.421268 +0200,
single,dual,CUP,XSAUCER,7777777,10,1,9,j,f,1,YNPLRQW,0,0,0,0,0,18,18,18,,,,,,,,,0,5,5,7,107.45486460020766,,,,,,,,,,,,,,,,,107.43808759981766,107.45486460020766,107.52158660022542,,,,,,,,,,,,,,,,,,,,,,,,,686480,1,2024-06-21_10h13.06.671,AB,2024.1.1,None,2024-06-21 10h13.15.421268 +0200,
single,dual,CUP,XSAUCER,7777777,10,1,9,j,f,1,WMYFTGJ,0,0,0,0,0,18,18,18,,,,,,,,,0,6,6,6,107.53765399986878,,,,,,,,,,,,,,,,,107.52185630006716,107.53765399986878,107.60452109994367,,,,,,,,,,,,,,,,,,,,,,,,,686480,1,2024-06-21_10h13.06.671,AB,2024.1.1,None,2024-06-21 10h13.15.421268 +0200,
single,dual,CUP,XSAUCER,7777777,10,1,9,j,f,1,YGLMSFQ,0,0,0,0,0,18,18,18,,,,,,,,,0,7,7,1,107.6214159000665,,,,,,,,,,,,,,,,,107.60477240011096,107.6214159000665,107.68778470018879,,,,,,,,,,,,,,,,,,,,,,,,,686480,1,2024-06-21_10h13.06.671,AB,2024.1.1,None,2024-06-21 10h13.15.421268 +0200,
single,dual,CUP,XSAUCER,7777777,10,1,9,j,f,1,VFDMHQS,0,0,0,0,0,18,18,18,,,,,,,,,0,8,8,8,107.70470910007134,,,,,,,,,,,,,,,,,107.68803190020844,107.70470910007134,107.77150049991906,,,,,,,,,,,,,,,,,,,,,,,,,686480,1,2024-06-21_10h13.06.671,AB,2024.1.1,None,2024-06-21 10h13.15.421268 +0200,
single,dual,CUP,XSAUCER,7777777,10,1,9,j,f,1,,0,0,0,0,0,18,18,18,,,,,,,,,,,,,,,,,,,,,,,,,,,,,,,,,,,,,,,,,,107.77158660022542,107.77162150014192,None,0,107.77181230019778,107.78766580019146,108.77120310021564,108.77120310021564,108.78775790007785,108.98860950022936,f,1,108.97839660011232,None,,686480,1,2024-06-21_10h13.06.671,AB,2024.1.1,None,2024-06-21 10h13.15.421268 +0200,
single,dual,HUG,XTIGERX,0,7,7,6,f,j,0,ZJTSHFP,0,0,0,0,0,19,19,19,,,,,0,0,0,3,,,,,111.62668569991365,,,,,,,,,,,108.98905250011012,109.004795699846,109.98784179985523,110.00496360007674,111.02590660005808,110.97219960018992,111.4049339001067,111.42157289991155,111.48835169989616,111.48840560019016,111.50469060009345,111.57181139988825,111.61742930021137,111.62668569991365,111.65467539988458,,,,,,,,,,,,,,,,,,,686480,1,2024-06-21_10h13.06.671,AB,2024.1.1,None,2024-06-21 10h13.15.421268 +0200,
single,dual,HUG,XTIGERX,0,7,7,6,f,j,0,VYKXSPC,0,0,0,0,0,19,19,19,,,,,0,1,1,2,,,,,111.67164919991046,,,,,,,,,,,,,,,,,,,,,,,111.65492169978097,111.67164919991046,111.738385300152,,,,,,,,,,,,,,,,,,,686480,1,2024-06-21_10h13.06.671,AB,2024.1.1,None,2024-06-21 10h13.15.421268 +0200,
single,dual,HUG,XTIGERX,0,7,7,6,f,j,0,GQKRPDL,0,0,0,0,0,19,19,19,,,,,0,2,2,5,,,,,111.75462799984962,,,,,,,,,,,,,,,,,,,,,,,111.73868349986151,111.75462799984962,111.8218184998259,,,,,,,,,,,,,,,,,,,686480,1,2024-06-21_10h13.06.671,AB,2024.1.1,None,2024-06-21 10h13.15.421268 +0200,
single,dual,HUG,XTIGERX,0,7,7,6,f,j,0,ZTFYDXH,0,0,0,0,0,19,19,19,,,,,0,3,3,0,,,,,111.83792980015278,,,,,,,,,,,,,,,,,,,,,,,111.82207000022754,111.83792980015278,111.90470919990912,,,,,,,,,,,,,,,,,,,686480,1,2024-06-21_10h13.06.671,AB,2024.1.1,None,2024-06-21 10h13.15.421268 +0200,
single,dual,HUG,XTIGERX,0,7,7,6,f,j,0,HLFPYXK,0,0,0,0,0,19,19,19,,,,,0,4,4,4,,,,,111.92159349983558,,,,,,,,,,,,,,,,,,,,,,,111.904964200221,111.92159349983558,111.9883824000135,,,,,,,,,,,,,,,,,,,686480,1,2024-06-21_10h13.06.671,AB,2024.1.1,None,2024-06-21 10h13.15.421268 +0200,
single,dual,HUG,XTIGERX,0,7,7,6,f,j,0,YGLMSFQ,0,0,0,0,0,19,19,19,,,,,0,5,5,1,,,,,112.00458599999547,,,,,,,,,,,,,,,,,,,,,,,111.98866140004247,112.00458599999547,112.07173920003697,,,,,,,,,,,,,,,,,,,686480,1,2024-06-21_10h13.06.671,AB,2024.1.1,None,2024-06-21 10h13.15.421268 +0200,
single,dual,HUG,XTIGERX,0,7,7,6,f,j,0,ZTFYDXH,0,0,0,0,0,19,19,19,,,,,,,,,0,0,0,0,112.20654739998281,,,,,,,,,,,,,,,,,112.19994950015098,112.20654739998281,112.23802880011499,,,,,,,112.07182820001617,112.08793620020151,112.15475220000371,,,,,,,,,,,,,,,,686480,1,2024-06-21_10h13.06.671,AB,2024.1.1,None,2024-06-21 10h13.15.421268 +0200,
single,dual,HUG,XTIGERX,0,7,7,6,f,j,0,GQKRPDL,0,0,0,0,0,19,19,19,,,,,,,,,0,1,1,5,112.254650299903,,,,,,,,,,,,,,,,,112.2382661998272,112.254650299903,112.32173060020432,,,,,,,,,,,,,,,,,,,,,,,,,686480,1,2024-06-21_10h13.06.671,AB,2024.1.1,None,2024-06-21 10h13.15.421268 +0200,
single,dual,HUG,XTIGERX,0,7,7,6,f,j,0,HLFPYXK,0,0,0,0,0,19,19,19,,,,,,,,,0,2,2,4,112.33795149996877,,,,,,,,,,,,,,,,,112.3220148999244,112.33795149996877,112.40478600002825,,,,,,,,,,,,,,,,,,,,,,,,,686480,1,2024-06-21_10h13.06.671,AB,2024.1.1,None,2024-06-21 10h13.15.421268 +0200,
single,dual,HUG,XTIGERX,0,7,7,6,f,j,0,ZJTSHFP,0,0,0,0,0,19,19,19,,,,,,,,,0,3,3,3,112.42181249987334,,,,,,,,,,,,,,,,,112.40504910005257,112.42181249987334,112.48803000012413,,,,,,,,,,,,,,,,,,,,,,,,,686480,1,2024-06-21_10h13.06.671,AB,2024.1.1,None,2024-06-21 10h13.15.421268 +0200,
single,dual,HUG,XTIGERX,0,7,7,6,f,j,0,VYKXSPC,0,0,0,0,0,19,19,19,,,,,,,,,0,4,4,2,112.5050587002188,,,,,,,,,,,,,,,,,112.48827840015292,112.5050587002188,112.57176379999146,,,,,,,,,,,,,,,,,,,,,,,,,686480,1,2024-06-21_10h13.06.671,AB,2024.1.1,None,2024-06-21 10h13.15.421268 +0200,
single,dual,HUG,XTIGERX,0,7,7,6,f,j,0,YGLMSFQ,0,0,0,0,0,19,19,19,,,,,,,,,0,5,5,1,112.58805709984154,,,,,,,,,,,,,,,,,112.57203050004318,112.58805709984154,112.65471940021962,,,,,,,,,,,,,,,,,,,,,,,,,686480,1,2024-06-21_10h13.06.671,AB,2024.1.1,None,2024-06-21 10h13.15.421268 +0200,
single,dual,HUG,XTIGERX,0,7,7,6,f,j,0,,0,0,0,0,0,19,19,19,,,,,,,,,,,,,,,,,,,,,,,,,,,,,,,,,,,,,,,,,,112.65481639979407,112.65485210018232,None,0,112.6550273001194,112.67163860006258,113.65468539996073,113.65468539996073,113.67135540023446,114.57227479992434,j,1,114.56332169985399,None,,686480,1,2024-06-21_10h13.06.671,AB,2024.1.1,None,2024-06-21 10h13.15.421268 +0200,
single,dual,MORE,XWHITEX,5555555,10,3,7,j,j,0,ZTFYDXH,0,0,0,0,0,20,20,20,,,,,0,0,0,0,,,,,117.46181830018759,,,,,,,,,,,114.57272040005773,114.58865060005337,115.58813330018893,115.58813330018893,116.62627989985049,116.57190610002726,117.23893290013075,117.25487770000473,117.32162269996479,117.32167459977791,117.33865329995751,117.40533960005268,117.45018619997427,117.46181830018759,117.48867199989036,,,,,,,,,,,,,,,,,,116.83872940018773,686480,1,2024-06-21_10h13.06.671,AB,2024.1.1,None,2024-06-21 10h13.15.421268 +0200,
single,dual,MORE,XWHITEX,5555555,10,3,7,j,j,0,YGLMSFQ,0,0,0,0,0,20,20,20,,,,,0,1,1,1,,,,,117.50493009993806,,,,,,,,,,,,,,,,,,,,,,,117.4889465002343,117.50493009993806,117.57215149980038,,,,,,,,,,,,,,,,,,,686480,1,2024-06-21_10h13.06.671,AB,2024.1.1,None,2024-06-21 10h13.15.421268 +0200,
single,dual,MORE,XWHITEX,5555555,10,3,7,j,j,0,ZJTSHFP,0,0,0,0,0,20,20,20,,,,,,,,,0,0,0,3,117.70924839982763,,,,,,,,,,,,,,,,,117.70004989998415,117.70924839982763,117.73882910003886,,,,,,,117.57223520008847,117.58863419992849,117.65497069992125,,,,,,,,,,,,,,,,686480,1,2024-06-21_10h13.06.671,AB,2024.1.1,None,2024-06-21 10h13.15.421268 +0200,
single,dual,MORE,XWHITEX,5555555,10,3,7,j,j,0,GQKRPDL,0,0,0,0,0,20,20,20,,,,,,,,,0,1,1,5,117.75495600001886,,,,,,,,,,,,,,,,,117.73909780010581,117.75495600001886,117.82172810006887,,,,,,,,,,,,,,,,,,,,,,,,,686480,1,2024-06-21_10h13.06.671,AB,2024.1.1,None,2024-06-21 10h13.15.421268 +0200,
single,dual,MORE,XWHITEX,5555555,10,3,7,j,j,0,HLFPYXK,0,0,0,0,0,20,20,20,,,,,,,,,0,2,2,4,117.83858479978517,,,,,,,,,,,,,,,,,117.82198360003531,117.83858479978517,117.90495999995619,,,,,,,,,,,,,,,,,,,,,,,,,686480,1,2024-06-21_10h13.06.671,AB,2024.1.1,None,2024-06-21 10h13.15.421268 +0200,
single,dual,MORE,XWHITEX,5555555,10,3,7,j,j,0,WMYFTGJ,0,0,0,0,0,20,20,20,,,,,,,,,0,3,3,6,117.92154829995707,,,,,,,,,,,,,,,,,117.90521010011435,117.92154829995707,117.988716899883,,,,,,,,,,,,,,,,,,,,,,,,,686480,1,2024-06-21_10h13.06.671,AB,2024.1.1,None,2024-06-21 10h13.15.421268 +0200,
single,dual,MORE,XWHITEX,5555555,10,3,7,j,j,0,VYKXSPC,0,0,0,0,0,20,20,20,,,,,,,,,0,4,4,2,118.00491889985278,,,,,,,,,,,,,,,,,117.98897649999708,118.00491889985278,118.07174259983003,,,,,,,,,,,,,,,,,,,,,,,,,686480,1,2024-06-21_10h13.06.671,AB,2024.1.1,None,2024-06-21 10h13.15.421268 +0200,
single,dual,MORE,XWHITEX,5555555,10,3,7,j,j,0,ZTFYDXH,0,0,0,0,0,20,20,20,,,,,,,,,0,5,5,0,118.08826459990814,,,,,,,,,,,,,,,,,118.07198979984969,118.08826459990814,118.15504950005561,,,,,,,,,,,,,,,,,,,,,,,,,686480,1,2024-06-21_10h13.06.671,AB,2024.1.1,None,2024-06-21 10h13.15.421268 +0200,
single,dual,MORE,XWHITEX,5555555,10,3,7,j,j,0,YGLMSFQ,0,0,0,0,0,20,20,20,,,,,,,,,0,6,6,1,118.17168099991977,,,,,,,,,,,,,,,,,118.15530639979988,118.17168099991977,118.2389111998491,,,,,,,,,,,,,,,,,,,,,,,,,686480,1,2024-06-21_10h13.06.671,AB,2024.1.1,None,2024-06-21 10h13.15.421268 +0200,
single,dual,MORE,XWHITEX,5555555,10,3,7,j,j,0,,0,0,0,0,0,20,20,20,,,,,,,,,,,,,,,,,,,,,,,,,,,,,,,,,,,,,,,,,,118.2389985001646,118.23903239984065,None,0,118.2392277000472,118.25493439985439,119.2383750998415,119.2383750998415,119.2554325000383,120.03893439983949,j,1,120.0336842997931,None,,686480,1,2024-06-21_10h13.06.671,AB,2024.1.1,None,2024-06-21 10h13.15.421268 +0200,
single,dual,DOORS,XXTAXXX,2222222,7,1,12,f,j,0,,0,0,0,0,0,21,21,21,,,,,0,0,0,0,,,,,122.67921150010079,,,,,,,,,,,120.03937220014632,120.05533639993519,121.03843929991126,121.05556769995019,122.0768808000721,122.02223180001602,122.4554515001364,122.47221740009263,122.53864309983328,122.53869879990816,122.55513120023534,122.62254420015961,122.66846630023792,,122.67119390005246,,,,,,,,,,,,,,,,,,,686480,1,2024-06-21_10h13.06.671,AB,2024.1.1,None,2024-06-21 10h13.15.421268 +0200,
single,dual,DOORS,XXTAXXX,2222222,7,1,12,f,j,0,HQTYPJM,0,0,0,0,0,21,21,21,,,,,,,,,0,0,0,9,122.81014999980107,,,,,,,,,,,,,,,,,122.80130780022591,122.81014999980107,122.8386540999636,,,,,,,122.67125489981845,122.67921150010079,122.75556680001318,,,,,,,,,,,,,,,,686480,1,2024-06-21_10h13.06.671,AB,2024.1.1,None,2024-06-21 10h13.15.421268 +0200,
single,dual,DOORS,XXTAXXX,2222222,7,1,12,f,j,0,ZTFYDXH,0,0,0,0,0,21,21,21,,,,,,,,,0,1,1,0,122.85513360006735,,,,,,,,,,,,,,,,,122.83890190022066,122.85513360006735,122.92190920002759,,,,,,,,,,,,,,,,,,,,,,,,,686480,1,2024-06-21_10h13.06.671,AB,2024.1.1,None,2024-06-21 10h13.15.421268 +0200,
single,dual,DOORS,XXTAXXX,2222222,7,1,12,f,j,0,ZJTSHFP,0,0,0,0,0,21,21,21,,,,,,,,,0,2,2,3,122.93851470015943,,,,,,,,,,,,,,,,,122.92215690016747,122.93851470015943,123.00580620020628,,,,,,,,,,,,,,,,,,,,,,,,,686480,1,2024-06-21_10h13.06.671,AB,2024.1.1,None,2024-06-21 10h13.15.421268 +0200,
single,dual,DOORS,XXTAXXX,2222222,7,1,12,f,j,0,TJRHKVF,0,0,0,0,0,21,21,21,,,,,,,,,0,3,3,10,123.0218211999163,,,,,,,,,,,,,,,,,123.00605960004032,123.0218211999163,123.08865540008992,,,,,,,,,,,,,,,,,,,,,,,,,686480,1,2024-06-21_10h13.06.671,AB,2024.1.1,None,2024-06-21 10h13.15.421268 +0200,
single,dual,DOORS,XXTAXXX,2222222,7,1,12,f,j,0,GQKRPDL,0,0,0,0,0,21,21,21,,,,,,,,,0,4,4,5,123.10517829982564,,,,,,,,,,,,,,,,,123.0889135999605,123.10517829982564,123.17195129999891,,,,,,,,,,,,,,,,,,,,,,,,,686480,1,2024-06-21_10h13.06.671,AB,2024.1.1,None,2024-06-21 10h13.15.421268 +0200,
single,dual,DOORS,XXTAXXX,2222222,7,1,12,f,j,0,YNPLRQW,0,0,0,0,0,21,21,21,,,,,,,,,0,5,5,7,123.18849979992956,,,,,,,,,,,,,,,,,123.17220399994403,123.18849979992956,123.25565870013088,,,,,,,,,,,,,,,,,,,,,,,,,686480,1,2024-06-21_10h13.06.671,AB,2024.1.1,None,2024-06-21 10h13.15.421268 +0200,
single,dual,DOORS,XXTAXXX,2222222,7,1,12,f,j,0,VYKXSPC,0,0,0,0,0,21,21,21,,,,,,,,,0,6,6,2,123.27186479978263,,,,,,,,,,,,,,,,,123.25592050002888,123.27186479978263,123.33871249994263,,,,,,,,,,,,,,,,,,,,,,,,,686480,1,2024-06-21_10h13.06.671,AB,2024.1.1,None,2024-06-21 10h13.15.421268 +0200,
single,dual,DOORS,XXTAXXX,2222222,7,1,12,f,j,0,VFDMHQS,0,0,0,0,0,21,21,21,,,,,,,,,0,7,7,8,123.35515000019222,,,,,,,,,,,,,,,,,123.33897660020739,123.35515000019222,123.42195639992133,,,,,,,,,,,,,,,,,,,,,,,,,686480,1,2024-06-21_10h13.06.671,AB,2024.1.1,None,2024-06-21 10h13.15.421268 +0200,
single,dual,DOORS,XXTAXXX,2222222,7,1,12,f,j,0,YGLMSFQ,0,0,0,0,0,21,21,21,,,,,,,,,0,8,8,1,123.43856019992381,,,,,,,,,,,,,,,,,123.4222042998299,123.43856019992381,123.50570149999112,,,,,,,,,,,,,,,,,,,,,,,,,686480,1,2024-06-21_10h13.06.671,AB,2024.1.1,None,2024-06-21 10h13.15.421268 +0200,
single,dual,DOORS,XXTAXXX,2222222,7,1,12,f,j,0,WFXQGMY,0,0,0,0,0,21,21,21,,,,,,,,,0,9,9,11,123.52229279978201,,,,,,,,,,,,,,,,,123.50596750015393,123.52229279978201,123.58857659995556,,,,,,,,,,,,,,,,,,,,,,,,,686480,1,2024-06-21_10h13.06.671,AB,2024.1.1,None,2024-06-21 10h13.15.421268 +0200,
single,dual,DOORS,XXTAXXX,2222222,7,1,12,f,j,0,WMYFTGJ,0,0,0,0,0,21,21,21,,,,,,,,,0,10,10,6,123.60524500021711,,,,,,,,,,,,,,,,,123.5888371001929,123.60524500021711,123.67196939978749,,,,,,,,,,,,,,,,,,,,,,,,,686480,1,2024-06-21_10h13.06.671,AB,2024.1.1,None,2024-06-21 10h13.15.421268 +0200,
single,dual,DOORS,XXTAXXX,2222222,7,1,12,f,j,0,HLFPYXK,0,0,0,0,0,21,21,21,,,,,,,,,0,11,11,4,123.68849179986864,,,,,,,,,,,,,,,,,123.67221939982846,123.68849179986864,123.75533720012754,,,,,,,,,,,,,,,,,,,,,,,,,686480,1,2024-06-21_10h13.06.671,AB,2024.1.1,None,2024-06-21 10h13.15.421268 +0200,
single,dual,DOORS,XXTAXXX,2222222,7,1,12,f,j,0,,0,0,0,0,0,21,21,21,,,,,,,,,,,,,,,,,,,,,,,,,,,,,,,,,,,,,,,,,,123.75542260007933,123.7554643000476,None,0,123.75564939994365,123.77229319978505,124.75570550002158,124.75570550002158,124.77206479990855,125.15594560001045,j,1,125.15402839984745,None,,686480,1,2024-06-21_10h13.06.671,AB,2024.1.1,None,2024-06-21 10h13.15.421268 +0200,
single,dual,GREEK,XXHIMXX,3333333,10,7,3,j,j,0,HLFPYXK,0,0,0,0,0,22,22,22,,,,,0,0,0,4,,,,,128.04289680020884,,,,,,,,,,,125.15637970017269,125.17238250002265,126.15548900002614,126.17205689987168,127.19331020023674,127.13913330016658,127.82290520006791,127.83882990013808,127.9055300001055,127.90558290015906,127.92254720022902,127.9892625999637,128.03407530020922,128.04289680020884,128.07266290020198,,,,,,,,,,,,,,,,,,,686480,1,2024-06-21_10h13.06.671,AB,2024.1.1,None,2024-06-21 10h13.15.421268 +0200,
single,dual,GREEK,XXHIMXX,3333333,10,7,3,j,j,0,GQKRPDL,0,0,0,0,0,22,22,22,,,,,0,1,1,5,,,,,128.0888928999193,,,,,,,,,,,,,,,,,,,,,,,128.07291379990056,128.0888928999193,128.15569210005924,,,,,,,,,,,,,,,,,,,686480,1,2024-06-21_10h13.06.671,AB,2024.1.1,None,2024-06-21 10h13.15.421268 +0200,
single,dual,GREEK,XXHIMXX,3333333,10,7,3,j,j,0,ZTFYDXH,0,0,0,0,0,22,22,22,,,,,0,2,2,0,,,,,128.17255479982123,,,,,,,,,,,,,,,,,,,,,,,128.15595459984615,128.17255479982123,128.23928599990904,,,,,,,,,,,,,,,,,,,686480,1,2024-06-21_10h13.06.671,AB,2024.1.1,None,2024-06-21 10h13.15.421268 +0200,
single,dual,GREEK,XXHIMXX,3333333,10,7,3,j,j,0,ZJTSHFP,0,0,0,0,0,22,22,22,,,,,0,3,3,3,,,,,128.25553329987451,,,,,,,,,,,,,,,,,,,,,,,128.23954669991508,128.25553329987451,128.3226731000468,,,,,,,,,,,,,,,,,,,686480,1,2024-06-21_10h13.06.671,AB,2024.1.1,None,2024-06-21 10h13.15.421268 +0200,
single,dual,GREEK,XXHIMXX,3333333,10,7,3,j,j,0,YGLMSFQ,0,0,0,0,0,22,22,22,,,,,0,4,4,1,,,,,128.3388824001886,,,,,,,,,,,,,,,,,,,,,,,128.32294250000268,128.3388824001886,128.40552909998223,,,,,,,,,,,,,,,,,,,686480,1,2024-06-21_10h13.06.671,AB,2024.1.1,None,2024-06-21 10h13.15.421268 +0200,
single,dual,GREEK,XXHIMXX,3333333,10,7,3,j,j,0,VYKXSPC,0,0,0,0,0,22,22,22,,,,,0,5,5,2,,,,,128.42286670021713,,,,,,,,,,,,,,,,,,,,,,,128.40577899990603,128.42286670021713,128.48891420010477,,,,,,,,,,,,,,,,,,,686480,1,2024-06-21_10h13.06.671,AB,2024.1.1,None,2024-06-21 10h13.15.421268 +0200,
single,dual,GREEK,XXHIMXX,3333333,10,7,3,j,j,0,VYKXSPC,0,0,0,0,0,22,22,22,,,,,,,,,0,0,0,2,128.6264859000221,,,,,,,,,,,,,,,,,128.61771749984473,128.6264859000221,128.65555310016498,,,,,,,128.48900400009006,128.5054131001234,128.573131499812,,,,,,,,,,,,,,,,686480,1,2024-06-21_10h13.06.671,AB,2024.1.1,None,2024-06-21 10h13.15.421268 +0200,
single,dual,GREEK,XXHIMXX,3333333,10,7,3,j,j,0,ZTFYDXH,0,0,0,0,0,22,22,22,,,,,,,,,0,1,1,0,128.67212540004402,,,,,,,,,,,,,,,,,128.65579660004005,128.67212540004402,128.73889040015638,,,,,,,,,,,,,,,,,,,,,,,,,686480,1,2024-06-21_10h13.06.671,AB,2024.1.1,None,2024-06-21 10h13.15.421268 +0200,
single,dual,GREEK,XXHIMXX,3333333,10,7,3,j,j,0,YGLMSFQ,0,0,0,0,0,22,22,22,,,,,,,,,0,2,2,1,128.75545360008255,,,,,,,,,,,,,,,,,128.73913840018213,128.75545360008255,128.8227948998101,,,,,,,,,,,,,,,,,,,,,,,,,686480,1,2024-06-21_10h13.06.671,AB,2024.1.1,None,2024-06-21 10h13.15.421268 +0200,
single,dual,GREEK,XXHIMXX,3333333,10,7,3,j,j,0,,0,0,0,0,0,22,22,22,,,,,,,,,,,,,,,,,,,,,,,,,,,,,,,,,,,,,,,,,,128.8228874001652,128.82292350009084,None,0,128.8231055000797,128.83887029998004,129.8222461999394,129.8222461999394,129.83948389999568,130.68958819983527,j,1,130.67505900003016,None,,686480,1,2024-06-21_10h13.06.671,AB,2024.1.1,None,2024-06-21 10h13.15.421268 +0200,
single,dual,REPAIR,XXSOUPX,5555555,10,1,9,j,j,0,,0,0,0,0,0,23,23,23,,,,,0,0,0,0,,,,,133.57855460001156,,,,,,,,,,,130.69002729980275,130.70561659988016,131.68941339990124,131.70562150003389,132.72656909981743,132.6726882001385,133.3559673000127,133.37244189996272,133.43920519994572,133.4392578001134,133.45614189980552,133.52245629997924,133.56754839979112,,133.57040689978749,,,,,,,,,,,,,,,,,,,686480,1,2024-06-21_10h13.06.671,AB,2024.1.1,None,2024-06-21 10h13.15.421268 +0200,
single,dual,REPAIR,XXSOUPX,5555555,10,1,9,j,j,0,WMYFTGJ,0,0,0,0,0,23,23,23,,,,,,,,,0,0,0,6,133.71103349979967,,,,,,,,,,,,,,,,,133.70156970014796,133.71103349979967,133.73958750022575,,,,,,,133.57046969980001,133.57855460001156,133.6561587001197,,,,,,,,,,,,,,,,686480,1,2024-06-21_10h13.06.671,AB,2024.1.1,None,2024-06-21 10h13.15.421268 +0200,
single,dual,REPAIR,XXSOUPX,5555555,10,1,9,j,j,0,HLFPYXK,0,0,0,0,0,23,23,23,,,,,,,,,0,1,1,4,133.75573690002784,,,,,,,,,,,,,,,,,133.73984780022874,133.75573690002784,133.8227073000744,,,,,,,,,,,,,,,,,,,,,,,,,686480,1,2024-06-21_10h13.06.671,AB,2024.1.1,None,2024-06-21 10h13.15.421268 +0200,
single,dual,REPAIR,XXSOUPX,5555555,10,1,9,j,j,0,ZJTSHFP,0,0,0,0,0,23,23,23,,,,,,,,,0,2,2,3,133.83947450015694,,,,,,,,,,,,,,,,,133.82295220019296,133.83947450015694,133.9059652001597,,,,,,,,,,,,,,,,,,,,,,,,,686480,1,2024-06-21_10h13.06.671,AB,2024.1.1,None,2024-06-21 10h13.15.421268 +0200,
single,dual,REPAIR,XXSOUPX,5555555,10,1,9,j,j,0,YGLMSFQ,0,0,0,0,0,23,23,23,,,,,,,,,0,3,3,1,133.92240850022063,,,,,,,,,,,,,,,,,133.90623260010034,133.92240850022063,133.9897222998552,,,,,,,,,,,,,,,,,,,,,,,,,686480,1,2024-06-21_10h13.06.671,AB,2024.1.1,None,2024-06-21 10h13.15.421268 +0200,
single,dual,REPAIR,XXSOUPX,5555555,10,1,9,j,j,0,YNPLRQW,0,0,0,0,0,23,23,23,,,,,,,,,0,4,4,7,134.00578239979222,,,,,,,,,,,,,,,,,133.98997680004686,134.00578239979222,134.07259850017726,,,,,,,,,,,,,,,,,,,,,,,,,686480,1,2024-06-21_10h13.06.671,AB,2024.1.1,None,2024-06-21 10h13.15.421268 +0200,
single,dual,REPAIR,XXSOUPX,5555555,10,1,9,j,j,0,GQKRPDL,0,0,0,0,0,23,23,23,,,,,,,,,0,5,5,5,134.0894809998572,,,,,,,,,,,,,,,,,134.0728356000036,134.0894809998572,134.15590230003,,,,,,,,,,,,,,,,,,,,,,,,,686480,1,2024-06-21_10h13.06.671,AB,2024.1.1,None,2024-06-21 10h13.15.421268 +0200,
single,dual,REPAIR,XXSOUPX,5555555,10,1,9,j,j,0,ZTFYDXH,0,0,0,0,0,23,23,23,,,,,,,,,0,6,6,0,134.17245149984956,,,,,,,,,,,,,,,,,134.15616150014102,134.17245149984956,134.23964380007237,,,,,,,,,,,,,,,,,,,,,,,,,686480,1,2024-06-21_10h13.06.671,AB,2024.1.1,None,2024-06-21 10h13.15.421268 +0200,
single,dual,REPAIR,XXSOUPX,5555555,10,1,9,j,j,0,VYKXSPC,0,0,0,0,0,23,23,23,,,,,,,,,0,7,7,2,134.25579780014232,,,,,,,,,,,,,,,,,134.23990919999778,134.25579780014232,134.32267840020359,,,,,,,,,,,,,,,,,,,,,,,,,686480,1,2024-06-21_10h13.06.671,AB,2024.1.1,None,2024-06-21 10h13.15.421268 +0200,
single,dual,REPAIR,XXSOUPX,5555555,10,1,9,j,j,0,VFDMHQS,0,0,0,0,0,23,23,23,,,,,,,,,0,8,8,8,134.33922389987856,,,,,,,,,,,,,,,,,134.32292729988694,134.33922389987856,134.4060112000443,,,,,,,,,,,,,,,,,,,,,,,,,686480,1,2024-06-21_10h13.06.671,AB,2024.1.1,None,2024-06-21 10h13.15.421268 +0200,
single,dual,REPAIR,XXSOUPX,5555555,10,1,9,j,j,0,,0,0,0,0,0,23,23,23,,,,,,,,,,,,,,,,,,,,,,,,,,,,,,,,,,,,,,,,,,134.40609510010108,134.40613000001758,None,0,134.4063145997934,134.42248630011454,135.40622350014746,135.40622350014746,135.4225081000477,135.75694430014119,j,1,135.74668639991432,None,,686480,1,2024-06-21_10h13.06.671,AB,2024.1.1,None,2024-06-21 10h13.15.421268 +0200,
single,dual,AFRAID,XXLAMBX,3333333,10,3,7,j,j,0,ZTFYDXH,0,0,0,0,0,24,24,24,,,,,0,0,0,0,,,,,138.64384530019015,,,,,,,,,,,135.7573802000843,135.77270210022107,136.77301160013303,136.77301160013303,137.8108732998371,137.75688329990953,138.4229826000519,138.43936630012468,138.5065298997797,138.5065855998546,138.52274410007522,138.58945159986615,138.6340871998109,138.64384530019015,138.67274679988623,,,,,,,,,,,,,,,,,,,686480,1,2024-06-21_10h13.06.671,AB,2024.1.1,None,2024-06-21 10h13.15.421268 +0200,
single,dual,AFRAID,XXLAMBX,3333333,10,3,7,j,j,0,YGLMSFQ,0,0,0,0,0,24,24,24,,,,,0,1,1,1,,,,,138.6893358998932,,,,,,,,,,,,,,,,,,,,,,,138.67299110023305,138.6893358998932,138.7565639000386,,,,,,,,,,,,,,,,,,,686480,1,2024-06-21_10h13.06.671,AB,2024.1.1,None,2024-06-21 10h13.15.421268 +0200,
single,dual,AFRAID,XXLAMBX,3333333,10,3,7,j,j,0,YGLMSFQ,0,0,0,0,0,24,24,24,,,,,,,,,0,0,0,1,138.89360429998487,,,,,,,,,,,,,,,,,138.88441559998319,138.89360429998487,138.92279980005696,,,,,,,138.75665740016848,138.77271120017394,138.83951759990305,,,,,,,,,,,,,,,,686480,1,2024-06-21_10h13.06.671,AB,2024.1.1,None,2024-06-21 10h13.15.421268 +0200,
single,dual,AFRAID,XXLAMBX,3333333,10,3,7,j,j,0,ZTFYDXH,0,0,0,0,0,24,24,24,,,,,,,,,0,1,1,0,138.93939010007307,,,,,,,,,,,,,,,,,138.9230427998118,138.93939010007307,139.0065268999897,,,,,,,,,,,,,,,,,,,,,,,,,686480,1,2024-06-21_10h13.06.671,AB,2024.1.1,None,2024-06-21 10h13.15.421268 +0200,
single,dual,AFRAID,XXLAMBX,3333333,10,3,7,j,j,0,ZJTSHFP,0,0,0,0,0,24,24,24,,,,,,,,,0,2,2,3,139.0228405999951,,,,,,,,,,,,,,,,,139.00678820023313,139.0228405999951,139.08981169993058,,,,,,,,,,,,,,,,,,,,,,,,,686480,1,2024-06-21_10h13.06.671,AB,2024.1.1,None,2024-06-21 10h13.15.421268 +0200,
single,dual,AFRAID,XXLAMBX,3333333,10,3,7,j,j,0,WMYFTGJ,0,0,0,0,0,24,24,24,,,,,,,,,0,3,3,6,139.1060103001073,,,,,,,,,,,,,,,,,139.09010409982875,139.1060103001073,139.17283709999174,,,,,,,,,,,,,,,,,,,,,,,,,686480,1,2024-06-21_10h13.06.671,AB,2024.1.1,None,2024-06-21 10h13.15.421268 +0200,
single,dual,AFRAID,XXLAMBX,3333333,10,3,7,j,j,0,HLFPYXK,0,0,0,0,0,24,24,24,,,,,,,,,0,4,4,4,139.18950759992003,,,,,,,,,,,,,,,,,139.17308769980446,139.18950759992003,139.25617749989033,,,,,,,,,,,,,,,,,,,,,,,,,686480,1,2024-06-21_10h13.06.671,AB,2024.1.1,None,2024-06-21 10h13.15.421268 +0200,
single,dual,AFRAID,XXLAMBX,3333333,10,3,7,j,j,0,VYKXSPC,0,0,0,0,0,24,24,24,,,,,,,,,0,5,5,2,139.27313440013677,,,,,,,,,,,,,,,,,139.25642109988257,139.27313440013677,139.33968959981576,,,,,,,,,,,,,,,,,,,,,,,,,686480,1,2024-06-21_10h13.06.671,AB,2024.1.1,None,2024-06-21 10h13.15.421268 +0200,
single,dual,AFRAID,XXLAMBX,3333333,10,3,7,j,j,0,GQKRPDL,0,0,0,0,0,24,24,24,,,,,,,,,0,6,6,5,139.3560712998733,,,,,,,,,,,,,,,,,139.33995050005615,139.3560712998733,139.42282309988514,,,,,,,,,,,,,,,,,,,,,,,,,686480,1,2024-06-21_10h13.06.671,AB,2024.1.1,None,2024-06-21 10h13.15.421268 +0200,
single,dual,AFRAID,XXLAMBX,3333333,10,3,7,j,j,0,,0,0,0,0,0,24,24,24,,,,,,,,,,,,,,,,,,,,,,,,,,,,,,,,,,,,,,,,,,139.422906300053,139.42293919995427,None,0,139.42312450008467,139.43942600023001,140.4231865000911,140.4231865000911,140.43952869996428,140.70741180004552,j,1,140.6908120000735,None,,686480,1,2024-06-21_10h13.06.671,AB,2024.1.1,None,2024-06-21 10h13.15.421268 +0200,
single,dual,PAIR,SHORTLY,4444444,10,1,9,f,j,0,,0,0,0,0,0,25,25,25,,,,,0,0,0,0,,,,,143.59611209994182,,,,,,,,,,,140.707847900223,140.7229368998669,141.72326959995553,141.72326959995553,142.761653999798,142.7068345998414,143.37367960019037,143.3896026997827,143.45640109991655,143.45645300019532,143.47304600011557,143.5396905997768,143.58446899987757,,143.58725709980354,,,,,,,,,,,,,,,,,,,686480,1,2024-06-21_10h13.06.671,AB,2024.1.1,None,2024-06-21 10h13.15.421268 +0200,
single,dual,PAIR,SHORTLY,4444444,10,1,9,f,j,0,HLFPYXK,0,0,0,0,0,25,25,25,,,,,,,,,0,0,0,4,143.72745569981635,,,,,,,,,,,,,,,,,143.7179463999346,143.72745569981635,143.75658110016957,,,,,,,143.5873262998648,143.59611209994182,143.67336039990187,,,,,,,,,,,,,,,,686480,1,2024-06-21_10h13.06.671,AB,2024.1.1,None,2024-06-21 10h13.15.421268 +0200,
single,dual,PAIR,SHORTLY,4444444,10,1,9,f,j,0,ZTFYDXH,0,0,0,0,0,25,25,25,,,,,,,,,0,1,1,0,143.77335650008172,,,,,,,,,,,,,,,,,143.75683709979057,143.77335650008172,143.83971829991788,,,,,,,,,,,,,,,,,,,,,,,,,686480,1,2024-06-21_10h13.06.671,AB,2024.1.1,None,2024-06-21 10h13.15.421268 +0200,
single,dual,PAIR,SHORTLY,4444444,10,1,9,f,j,0,VYKXSPC,0,0,0,0,0,25,25,25,,,,,,,,,0,2,2,2,143.85628930013627,,,,,,,,,,,,,,,,,143.83996899984777,143.85628930013627,143.92342660017312,,,,,,,,,,,,,,,,,,,,,,,,,686480,1,2024-06-21_10h13.06.671,AB,2024.1.1,None,2024-06-21 10h13.15.421268 +0200,
single,dual,PAIR,SHORTLY,4444444,10,1,9,f,j,0,WMYFTGJ,0,0,0,0,0,25,25,25,,,,,,,,,0,3,3,6,143.93965069996193,,,,,,,,,,,,,,,,,143.92368669994175,143.93965069996193,144.00668830005452,,,,,,,,,,,,,,,,,,,,,,,,,686480,1,2024-06-21_10h13.06.671,AB,2024.1.1,None,2024-06-21 10h13.15.421268 +0200,
single,dual,PAIR,SHORTLY,4444444,10,1,9,f,j,0,ZJTSHFP,0,0,0,0,0,25,25,25,,,,,,,,,0,4,4,3,144.02298420015723,,,,,,,,,,,,,,,,,144.0069396002218,144.02298420015723,144.08975759986788,,,,,,,,,,,,,,,,,,,,,,,,,686480,1,2024-06-21_10h13.06.671,AB,2024.1.1,None,2024-06-21 10h13.15.421268 +0200,
single,dual,PAIR,SHORTLY,4444444,10,1,9,f,j,0,YNPLRQW,0,0,0,0,0,25,25,25,,,,,,,,,0,5,5,7,144.1064002001658,,,,,,,,,,,,,,,,,144.08999620005488,144.1064002001658,144.17347049992532,,,,,,,,,,,,,,,,,,,,,,,,,686480,1,2024-06-21_10h13.06.671,AB,2024.1.1,None,2024-06-21 10h13.15.421268 +0200,
single,dual,PAIR,SHORTLY,4444444,10,1,9,f,j,0,VFDMHQS,0,0,0,0,0,25,25,25,,,,,,,,,0,6,6,8,144.1896887999028,,,,,,,,,,,,,,,,,144.17374680005014,144.1896887999028,144.25644280016422,,,,,,,,,,,,,,,,,,,,,,,,,686480,1,2024-06-21_10h13.06.671,AB,2024.1.1,None,2024-06-21 10h13.15.421268 +0200,
single,dual,PAIR,SHORTLY,4444444,10,1,9,f,j,0,YGLMSFQ,0,0,0,0,0,25,25,25,,,,,,,,,0,7,7,1,144.27301590004936,,,,,,,,,,,,,,,,,144.25667600007728,144.27301590004936,144.3397750002332,,,,,,,,,,,,,,,,,,,,,,,,,686480,1,2024-06-21_10h13.06.671,AB,2024.1.1,None,2024-06-21 10h13.15.421268 +0200,
single,dual,PAIR,SHORTLY,4444444,10,1,9,f,j,0,GQKRPDL,0,0,0,0,0,25,25,25,,,,,,,,,0,8,8,5,144.35644980007783,,,,,,,,,,,,,,,,,144.3400242999196,144.35644980007783,144.4234637999907,,,,,,,,,,,,,,,,,,,,,,,,,686480,1,2024-06-21_10h13.06.671,AB,2024.1.1,None,2024-06-21 10h13.15.421268 +0200,
single,dual,PAIR,SHORTLY,4444444,10,1,9,f,j,0,,0,0,0,0,0,25,25,25,,,,,,,,,,,,,,,,,,,,,,,,,,,,,,,,,,,,,,,,,,144.42354959994555,144.42359199980274,None,0,144.4237759001553,144.43968590022996,145.4231428001076,145.4231428001076,145.44008870003745,145.77370129991323,f,0,145.76241440000013,None,,686480,1,2024-06-21_10h13.06.671,AB,2024.1.1,None,2024-06-21 10h13.15.421268 +0200,
single,dual,BABY,XPLAYER,8888888,10,1,9,f,j,0,,0,0,0,0,0,26,26,26,,,,,0,0,0,0,,,,,148.6625506998971,,,,,,,,,,,145.7741165999323,145.79009030014277,146.7730950000696,146.790165099781,147.81063270010054,147.75733319995925,148.44062909996137,148.45657149981707,148.52370470017195,148.5237630000338,148.5403140000999,148.6068297000602,148.65139390015975,,148.65394489979371,,,,,,,,,,,,,,,,,,,686480,1,2024-06-21_10h13.06.671,AB,2024.1.1,None,2024-06-21 10h13.15.421268 +0200,
single,dual,BABY,XPLAYER,8888888,10,1,9,f,j,0,ZJTSHFP,0,0,0,0,0,26,26,26,,,,,,,,,0,0,0,3,148.79404469998553,,,,,,,,,,,,,,,,,148.78483950020745,148.79404469998553,148.82330479985103,,,,,,,148.65400990005583,148.6625506998971,148.7402856000699,,,,,,,,,,,,,,,,686480,1,2024-06-21_10h13.06.671,AB,2024.1.1,None,2024-06-21 10h13.15.421268 +0200,
single,dual,BABY,XPLAYER,8888888,10,1,9,f,j,0,YGLMSFQ,0,0,0,0,0,26,26,26,,,,,,,,,0,1,1,1,148.84028329979628,,,,,,,,,,,,,,,,,148.8235754999332,148.84028329979628,148.90703799994662,,,,,,,,,,,,,,,,,,,,,,,,,686480,1,2024-06-21_10h13.06.671,AB,2024.1.1,None,2024-06-21 10h13.15.421268 +0200,
single,dual,BABY,XPLAYER,8888888,10,1,9,f,j,0,HLFPYXK,0,0,0,0,0,26,26,26,,,,,,,,,0,2,2,4,148.92326029995456,,,,,,,,,,,,,,,,,148.9072938999161,148.92326029995456,148.99048169981688,,,,,,,,,,,,,,,,,,,,,,,,,686480,1,2024-06-21_10h13.06.671,AB,2024.1.1,None,2024-06-21 10h13.15.421268 +0200,
single,dual,BABY,XPLAYER,8888888,10,1,9,f,j,0,YNPLRQW,0,0,0,0,0,26,26,26,,,,,,,,,0,3,3,7,149.00658270018175,,,,,,,,,,,,,,,,,148.99073719978333,149.00658270018175,149.07331589981914,,,,,,,,,,,,,,,,,,,,,,,,,686480,1,2024-06-21_10h13.06.671,AB,2024.1.1,None,2024-06-21 10h13.15.421268 +0200,
single,dual,BABY,XPLAYER,8888888,10,1,9,f,j,0,GQKRPDL,0,0,0,0,0,26,26,26,,,,,,,,,0,4,4,5,149.09038429986686,,,,,,,,,,,,,,,,,149.07359750010073,149.09038429986686,149.1570839001797,,,,,,,,,,,,,,,,,,,,,,,,,686480,1,2024-06-21_10h13.06.671,AB,2024.1.1,None,2024-06-21 10h13.15.421268 +0200,
single,dual,BABY,XPLAYER,8888888,10,1,9,f,j,0,VYKXSPC,0,0,0,0,0,26,26,26,,,,,,,,,0,5,5,2,149.17327080015093,,,,,,,,,,,,,,,,,149.15735509991646,149.17327080015093,149.24040810018778,,,,,,,,,,,,,,,,,,,,,,,,,686480,1,2024-06-21_10h13.06.671,AB,2024.1.1,None,2024-06-21 10h13.15.421268 +0200,
single,dual,BABY,XPLAYER,8888888,10,1,9,f,j,0,ZTFYDXH,0,0,0,0,0,26,26,26,,,,,,,,,0,6,6,0,149.25664230016991,,,,,,,,,,,,,,,,,149.24066800018772,149.25664230016991,149.323338100221,,,,,,,,,,,,,,,,,,,,,,,,,686480,1,2024-06-21_10h13.06.671,AB,2024.1.1,None,2024-06-21 10h13.15.421268 +0200,
single,dual,BABY,XPLAYER,8888888,10,1,9,f,j,0,VFDMHQS,0,0,0,0,0,26,26,26,,,,,,,,,0,7,7,8,149.3403096999973,,,,,,,,,,,,,,,,,149.32358200009912,149.3403096999973,149.40704389987513,,,,,,,,,,,,,,,,,,,,,,,,,686480,1,2024-06-21_10h13.06.671,AB,2024.1.1,None,2024-06-21 10h13.15.421268 +0200,
single,dual,BABY,XPLAYER,8888888,10,1,9,f,j,0,WMYFTGJ,0,0,0,0,0,26,26,26,,,,,,,,,0,8,8,6,149.4232800998725,,,,,,,,,,,,,,,,,149.40729819983244,149.4232800998725,149.4904860998504,,,,,,,,,,,,,,,,,,,,,,,,,686480,1,2024-06-21_10h13.06.671,AB,2024.1.1,None,2024-06-21 10h13.15.421268 +0200,
single,dual,BABY,XPLAYER,8888888,10,1,9,f,j,0,,0,0,0,0,0,26,26,26,,,,,,,,,,,,,,,,,,,,,,,,,,,,,,,,,,,,,,,,,,149.49058119999245,149.49061830015853,None,0,149.4908135998994,149.50666260020807,150.49013049993664,150.49013049993664,150.5070540998131,150.9239762001671,j,1,150.91434390004724,None,,686480,1,2024-06-21_10h13.06.671,AB,2024.1.1,None,2024-06-21 10h13.15.421268 +0200,
single,dual,DOCTOR,XNURSEX,8888888,7,3,10,f,f,1,YGLMSFQ,0,0,0,0,0,27,27,27,,,,,0,0,0,1,,,,,153.5589840998873,,,,,,,,,,,150.92439989978448,150.94001029990613,151.92341060005128,151.94010660005733,152.96094800019637,152.9075563000515,153.34046440012753,153.357213600073,153.4239265997894,153.42398100020364,153.44014579989016,153.5069396002218,153.55225390009582,153.5589840998873,153.59039379982278,,,,,,,,,,,,,,,,,,,686480,1,2024-06-21_10h13.06.671,AB,2024.1.1,None,2024-06-21 10h13.15.421268 +0200,
single,dual,DOCTOR,XNURSEX,8888888,7,3,10,f,f,1,ZTFYDXH,0,0,0,0,0,27,27,27,,,,,0,1,1,0,,,,,153.60713239992037,,,,,,,,,,,,,,,,,,,,,,,153.5906588002108,153.60713239992037,153.67356379982084,,,,,,,,,,,,,,,,,,,686480,1,2024-06-21_10h13.06.671,AB,2024.1.1,None,2024-06-21 10h13.15.421268 +0200,
single,dual,DOCTOR,XNURSEX,8888888,7,3,10,f,f,1,VFDMHQS,0,0,0,0,0,27,27,27,,,,,,,,,0,0,0,8,153.81104929978028,,,,,,,,,,,,,,,,,153.80189460003749,153.81104929978028,153.84031070023775,,,,,,,153.67365350015461,153.69029489997774,153.7574922000058,,,,,,,,,,,,,,,,686480,1,2024-06-21_10h13.06.671,AB,2024.1.1,None,2024-06-21 10h13.15.421268 +0200,
single,dual,DOCTOR,XNURSEX,8888888,7,3,10,f,f,1,HQTYPJM,0,0,0,0,0,27,27,27,,,,,,,,,0,1,1,9,153.85729390010238,,,,,,,,,,,,,,,,,153.8405574997887,153.85729390010238,153.92355720000342,,,,,,,,,,,,,,,,,,,,,,,,,686480,1,2024-06-21_10h13.06.671,AB,2024.1.1,None,2024-06-21 10h13.15.421268 +0200,
single,dual,DOCTOR,XNURSEX,8888888,7,3,10,f,f,1,YGLMSFQ,0,0,0,0,0,27,27,27,,,,,,,,,0,2,2,1,153.94016420003027,,,,,,,,,,,,,,,,,153.92380090011284,153.94016420003027,154.0073823002167,,,,,,,,,,,,,,,,,,,,,,,,,686480,1,2024-06-21_10h13.06.671,AB,2024.1.1,None,2024-06-21 10h13.15.421268 +0200,
single,dual,DOCTOR,XNURSEX,8888888,7,3,10,f,f,1,ZTFYDXH,0,0,0,0,0,27,27,27,,,,,,,,,0,3,3,0,154.0235776999034,,,,,,,,,,,,,,,,,154.00763799995184,154.0235776999034,154.0902769002132,,,,,,,,,,,,,,,,,,,,,,,,,686480,1,2024-06-21_10h13.06.671,AB,2024.1.1,None,2024-06-21 10h13.15.421268 +0200,
single,dual,DOCTOR,XNURSEX,8888888,7,3,10,f,f,1,GQKRPDL,0,0,0,0,0,27,27,27,,,,,,,,,0,4,4,5,154.10730390017852,,,,,,,,,,,,,,,,,154.09051659982651,154.10730390017852,154.1736217001453,,,,,,,,,,,,,,,,,,,,,,,,,686480,1,2024-06-21_10h13.06.671,AB,2024.1.1,None,2024-06-21 10h13.15.421268 +0200,
single,dual,DOCTOR,XNURSEX,8888888,7,3,10,f,f,1,YNPLRQW,0,0,0,0,0,27,27,27,,,,,,,,,0,5,5,7,154.19019789993763,,,,,,,,,,,,,,,,,154.17385850008577,154.19019789993763,154.25742630008608,,,,,,,,,,,,,,,,,,,,,,,,,686480,1,2024-06-21_10h13.06.671,AB,2024.1.1,None,2024-06-21 10h13.15.421268 +0200,
single,dual,DOCTOR,XNURSEX,8888888,7,3,10,f,f,1,HLFPYXK,0,0,0,0,0,27,27,27,,,,,,,,,0,6,6,4,154.27369790012017,,,,,,,,,,,,,,,,,154.25767870014533,154.27369790012017,154.34046579990536,,,,,,,,,,,,,,,,,,,,,,,,,686480,1,2024-06-21_10h13.06.671,AB,2024.1.1,None,2024-06-21 10h13.15.421268 +0200,
single,dual,DOCTOR,XNURSEX,8888888,7,3,10,f,f,1,WMYFTGJ,0,0,0,0,0,27,27,27,,,,,,,,,0,7,7,6,154.35730849998072,,,,,,,,,,,,,,,,,154.34070979990065,154.35730849998072,154.42398250009865,,,,,,,,,,,,,,,,,,,,,,,,,686480,1,2024-06-21_10h13.06.671,AB,2024.1.1,None,2024-06-21 10h13.15.421268 +0200,
single,dual,DOCTOR,XNURSEX,8888888,7,3,10,f,f,1,VYKXSPC,0,0,0,0,0,27,27,27,,,,,,,,,0,8,8,2,154.440241899807,,,,,,,,,,,,,,,,,154.42422229982913,154.440241899807,154.5073349000886,,,,,,,,,,,,,,,,,,,,,,,,,686480,1,2024-06-21_10h13.06.671,AB,2024.1.1,None,2024-06-21 10h13.15.421268 +0200,
single,dual,DOCTOR,XNURSEX,8888888,7,3,10,f,f,1,ZJTSHFP,0,0,0,0,0,27,27,27,,,,,,,,,0,9,9,3,154.52358180005103,,,,,,,,,,,,,,,,,154.50759549997747,154.52358180005103,154.59049890004098,,,,,,,,,,,,,,,,,,,,,,,,,686480,1,2024-06-21_10h13.06.671,AB,2024.1.1,None,2024-06-21 10h13.15.421268 +0200,
single,dual,DOCTOR,XNURSEX,8888888,7,3,10,f,f,1,,0,0,0,0,0,27,27,27,,,,,,,,,,,,,,,,,,,,,,,,,,,,,,,,,,,,,,,,,,154.59058750001714,154.5906225000508,None,0,154.59080690005794,154.60701620019972,155.59028619993478,155.59028619993478,155.60696520004421,155.95819750009105,f,1,155.95374300004914,None,,686480,1,2024-06-21_10h13.06.671,AB,2024.1.1,None,2024-06-21 10h13.15.421268 +0200,
