task1,task2,T0,T2,T1,lagT0,lagT1,lagT2,responseT1,responseT2,related,block.thisRepN,block.thisTrialN,block.thisN,block.thisIndex,trial.thisRepN,trial.thisTrialN,trial.thisN,trial.thisIndex,trials_T0_context.thisRepN,trials_T0_context.thisTrialN,trials_T0_context.thisN,trials_T0_context.thisIndex,trials_T1.thisRepN,trials_T1.thisTrialN,trials_T1.thisN,trials_T1.thisIndex,trials_T2.thisRepN,trials_T2.thisTrialN,trials_T2.thisN,trials_T2.thisIndex,text_instructions.started,key_resp.started,key_resp.keys,key_resp.rt,key_resp.duration,context_word.started,blankContext.started,context_word.stopped,blankContext.stopped,distractor_T0,text_distr_T0.started,text_distr_T0.stopped,text_blank_distractors_T0.started,text_blank_distractors_T0.stopped,text_T1.started,text_T1.stopped,text_blank_number_T1.started,text_blank_number_T1.stopped,distractor_T1,text_distr_T1.started,text_distr_T1.stopped,text_blank_distractors_T1.started,text_blank_distractors_T1.stopped,text_T2.started,text_T2.stopped,text_blank_T2_probe.started,text_blank_T2_probe.stopped,distractor_T2,text_distr_T2.started,text_distr_T2.stopped,text_blank_distractors_T2.started,text_blank_distractors_T2.stopped,key_resp_T1.keys,key_resp_T1.corr,blankT2_1.started,text_T2ask.started,key_resp_T2.started,blankT2_1.stopped,text_T2ask.stopped,blankT2_2.started,key_resp_T2.stopped,blankT2_2.stopped,key_resp_T2.keys,key_resp_T2.corr,participant,order [1: single-dual or 2: dual-single],refresh rate (Hz),language,date,expName,psychopyVersion,frameRate,
,,,,,,,,,,,,,,,,,,,,,,,,,,,,,,,12.367152700000588,12.367152700000588,space,0.5201713999995263,None,,,,,,,,,,,,,,,,,,,,,,,,,,,,,,,,,,,,,,,,697190,1,60,en,2024-11-26_15h59.54.693,AB,2023.1.3,59.90901019532984,
single,dual,ANGRY,XNURSEX,7777777.0,7,7,6,f,j,0,0,0,0,0,0,0,0,0,0,0,0,0,,,,,,,,,,,,,,13.054371600000195,14.046283600000606,14.062733700000535,15.046124299999974,NWLQHKY,15.046124299999974,15.079588800000238,15.079588800000238,15.129651100000046,,,,,,,,,,,,,,,,,,,,,,,,,,,,,,,697190,1,60,en,2024-11-26_15h59.54.693,AB,2023.1.3,59.90901019532984,
single,dual,ANGRY,XNURSEX,7777777.0,7,7,6,f,j,0,0,0,0,0,0,0,0,0,1,0,1,0,,,,,,,,,,,,,,,,,,BWSTFML,15.129651100000046,15.16276360000029,15.16276360000029,15.212807200000498,,,,,,,,,,,,,,,,,,,,,,,,,,,,,,,697190,1,60,en,2024-11-26_15h59.54.693,AB,2023.1.3,59.90901019532984,
single,dual,ANGRY,XNURSEX,7777777.0,7,7,6,f,j,0,0,0,0,0,0,0,0,0,2,0,2,0,,,,,,,,,,,,,,,,,,JBDVFXM,15.212807200000498,15.24616320000041,15.24616320000041,15.296160800000507,,,,,,,,,,,,,,,,,,,,,,,,,,,,,,,697190,1,60,en,2024-11-26_15h59.54.693,AB,2023.1.3,59.90901019532984,
single,dual,ANGRY,XNURSEX,7777777.0,7,7,6,f,j,0,0,0,0,0,0,0,0,0,3,0,3,0,,,,,,,,,,,,,,,,,,MSZCHDF,15.296160800000507,15.32970960000057,15.32970960000057,15.379488600000514,,,,,,,,,,,,,,,,,,,,,,,,,,,,,,,697190,1,60,en,2024-11-26_15h59.54.693,AB,2023.1.3,59.90901019532984,
single,dual,ANGRY,XNURSEX,7777777.0,7,7,6,f,j,0,0,0,0,0,0,0,0,0,4,0,4,0,,,,,,,,,,,,,,,,,,TYSFJQV,15.379488600000514,15.412835000000086,15.412835000000086,15.462783200000558,,,,,,,,,,,,,,,,,,,,,,,,,,,,,,,697190,1,60,en,2024-11-26_15h59.54.693,AB,2023.1.3,59.90901019532984,
single,dual,ANGRY,XNURSEX,7777777.0,7,7,6,f,j,0,0,0,0,0,0,0,0,0,5,0,5,0,,,,,,,,,,,,,,,,,,BWLMYDF,15.462783200000558,15.496222300000227,15.496222300000227,15.546132299999954,,,,,,,,,,,,,,,,,,,,,,,,,,,,,,,697190,1,60,en,2024-11-26_15h59.54.693,AB,2023.1.3,59.90901019532984,
single,dual,ANGRY,XNURSEX,7777777.0,7,7,6,f,j,0,0,0,0,0,0,0,0,0,,,,,0,0,0,0,,,,,,,,,,,,,,,,,,,15.546132299999954,15.579529200000252,15.579529200000252,15.629475500000808,XDSTFRZ,15.629475500000808,15.662870000000112,15.662870000000112,15.712866700000632,,,,,,,,,,,,,,,,,,,,,,697190,1,60,en,2024-11-26_15h59.54.693,AB,2023.1.3,59.90901019532984,
single,dual,ANGRY,XNURSEX,7777777.0,7,7,6,f,j,0,0,0,0,0,0,0,0,0,,,,,1,0,1,0,,,,,,,,,,,,,,,,,,,,,,,TZVQJNH,15.712866700000632,15.746246600000632,15.746246600000632,15.796279300000606,,,,,,,,,,,,,,,,,,,,,,697190,1,60,en,2024-11-26_15h59.54.693,AB,2023.1.3,59.90901019532984,
single,dual,ANGRY,XNURSEX,7777777.0,7,7,6,f,j,0,0,0,0,0,0,0,0,0,,,,,2,0,2,0,,,,,,,,,,,,,,,,,,,,,,,MBYCPRS,15.796279300000606,15.829538300000422,15.829538300000422,15.87954500000069,,,,,,,,,,,,,,,,,,,,,,697190,1,60,en,2024-11-26_15h59.54.693,AB,2023.1.3,59.90901019532984,
single,dual,ANGRY,XNURSEX,7777777.0,7,7,6,f,j,0,0,0,0,0,0,0,0,0,,,,,3,0,3,0,,,,,,,,,,,,,,,,,,,,,,,RZNYFCJ,15.87954500000069,15.912907100000666,15.912907100000666,15.962847200000397,,,,,,,,,,,,,,,,,,,,,,697190,1,60,en,2024-11-26_15h59.54.693,AB,2023.1.3,59.90901019532984,
single,dual,ANGRY,XNURSEX,7777777.0,7,7,6,f,j,0,0,0,0,0,0,0,0,0,,,,,4,0,4,0,,,,,,,,,,,,,,,,,,,,,,,YJVDZPR,15.962847200000397,15.996271800000613,15.996271800000613,16.046184100000573,,,,,,,,,,,,,,,,,,,,,,697190,1,60,en,2024-11-26_15h59.54.693,AB,2023.1.3,59.90901019532984,
single,dual,ANGRY,XNURSEX,7777777.0,7,7,6,f,j,0,0,0,0,0,0,0,0,0,,,,,5,0,5,0,,,,,,,,,,,,,,,,,,,,,,,RYTBPWL,16.046184100000573,16.079527900000357,16.079527900000357,16.12959210000008,,,,,,,,,,,,,,,,,,,,,,697190,1,60,en,2024-11-26_15h59.54.693,AB,2023.1.3,59.90901019532984,
single,dual,ANGRY,XNURSEX,7777777.0,7,7,6,f,j,0,0,0,0,0,0,0,0,0,,,,,,,,,0,0,0,0,,,,,,,,,,,,,,,,,,,,,,,,16.12959210000008,16.16299810000055,16.16299810000055,16.213002100000267,RYTBPWL,16.213002100000267,16.246416200000567,16.246416200000567,16.29621220000081,,,,,,,,,,,,,697190,1,60,en,2024-11-26_15h59.54.693,AB,2023.1.3,59.90901019532984,
single,dual,ANGRY,XNURSEX,7777777.0,7,7,6,f,j,0,0,0,0,0,0,0,0,0,,,,,,,,,1,0,1,0,,,,,,,,,,,,,,,,,,,,,,,,,,,,HCWGDYZ,16.29621220000081,16.32958670000062,16.32958670000062,16.37971760000073,,,,,,,,,,,,,697190,1,60,en,2024-11-26_15h59.54.693,AB,2023.1.3,59.90901019532984,
single,dual,ANGRY,XNURSEX,7777777.0,7,7,6,f,j,0,0,0,0,0,0,0,0,0,,,,,,,,,2,0,2,0,,,,,,,,,,,,,,,,,,,,,,,,,,,,PDMVRHS,16.37971760000073,16.41324010000062,16.41324010000062,16.46294830000079,,,,,,,,,,,,,697190,1,60,en,2024-11-26_15h59.54.693,AB,2023.1.3,59.90901019532984,
single,dual,ANGRY,XNURSEX,7777777.0,7,7,6,f,j,0,0,0,0,0,0,0,0,0,,,,,,,,,3,0,3,0,,,,,,,,,,,,,,,,,,,,,,,,,,,,PXYQSDR,16.46294830000079,16.496256800000083,16.496256800000083,16.54640230000041,,,,,,,,,,,,,697190,1,60,en,2024-11-26_15h59.54.693,AB,2023.1.3,59.90901019532984,
single,dual,ANGRY,XNURSEX,7777777.0,7,7,6,f,j,0,0,0,0,0,0,0,0,0,,,,,,,,,4,0,4,0,,,,,,,,,,,,,,,,,,,,,,,,,,,,KLBFNXC,16.54640230000041,16.579593500000556,16.579593500000556,16.629585900000166,,,,,,,,,,,,,697190,1,60,en,2024-11-26_15h59.54.693,AB,2023.1.3,59.90901019532984,
single,dual,ANGRY,XNURSEX,7777777.0,7,7,6,f,j,0,0,0,0,0,0,0,0,0,,,,,,,,,5,0,5,0,,,,,,,,,,,,,,,,,,,,,,,,,,,,MJQRHPG,16.629585900000166,16.663337100000717,16.663337100000717,16.713028300000587,,,,,,,,,,,,,697190,1,60,en,2024-11-26_15h59.54.693,AB,2023.1.3,59.90901019532984,
single,dual,ANGRY,XNURSEX,7777777.0,7,7,6,f,j,0,0,0,0,0,0,0,0,0,,,,,,,,,,,,,,,,,,,,,,,,,,,,,,,,,,,,,,,,,,,,,None,0,16.713028300000587,17.696433800000705,17.696433800000705,17.71308339999996,19.69662310000058,19.69662310000058,19.69662310000058,20.696677900000395,None,0,697190,1,60,en,2024-11-26_15h59.54.693,AB,2023.1.3,59.90901019532984,
single,dual,NUMBERS,LETTERS,7777777.0,7,1,12,f,f,1,0,0,0,0,0,1,1,1,0,0,0,0,,,,,,,,,,,,,,20.696677900000395,21.69662960000005,21.69662960000005,22.696795400000155,YHRBKCP,22.696795400000155,22.73001420000037,22.73001420000037,22.780042900000808,,,,,,,,,,,,,,,,,,,,,,,,,,,,,,,697190,1,60,en,2024-11-26_15h59.54.693,AB,2023.1.3,59.90901019532984,
single,dual,NUMBERS,LETTERS,7777777.0,7,1,12,f,f,1,0,0,0,0,0,1,1,1,1,0,1,0,,,,,,,,,,,,,,,,,,BRXLQJN,22.780042900000808,22.813569100000677,22.813569100000677,22.863455200000317,,,,,,,,,,,,,,,,,,,,,,,,,,,,,,,697190,1,60,en,2024-11-26_15h59.54.693,AB,2023.1.3,59.90901019532984,
single,dual,NUMBERS,LETTERS,7777777.0,7,1,12,f,f,1,0,0,0,0,0,1,1,1,2,0,2,0,,,,,,,,,,,,,,,,,,KGNBDTX,22.863455200000317,22.896702600000026,22.896702600000026,22.94672200000059,,,,,,,,,,,,,,,,,,,,,,,,,,,,,,,697190,1,60,en,2024-11-26_15h59.54.693,AB,2023.1.3,59.90901019532984,
single,dual,NUMBERS,LETTERS,7777777.0,7,1,12,f,f,1,0,0,0,0,0,1,1,1,3,0,3,0,,,,,,,,,,,,,,,,,,YMVPDZQ,22.94672200000059,22.980140000000574,22.980140000000574,23.030058700000154,,,,,,,,,,,,,,,,,,,,,,,,,,,,,,,697190,1,60,en,2024-11-26_15h59.54.693,AB,2023.1.3,59.90901019532984,
single,dual,NUMBERS,LETTERS,7777777.0,7,1,12,f,f,1,0,0,0,0,0,1,1,1,4,0,4,0,,,,,,,,,,,,,,,,,,WBFKDNX,23.030058700000154,23.063583800000742,23.063583800000742,23.113484400000743,,,,,,,,,,,,,,,,,,,,,,,,,,,,,,,697190,1,60,en,2024-11-26_15h59.54.693,AB,2023.1.3,59.90901019532984,
single,dual,NUMBERS,LETTERS,7777777.0,7,1,12,f,f,1,0,0,0,0,0,1,1,1,5,0,5,0,,,,,,,,,,,,,,,,,,ZRKXHVD,23.113484400000743,23.14675310000075,23.14675310000075,23.196721199999956,,,,,,,,,,,,,,,,,,,,,,,,,,,,,,,697190,1,60,en,2024-11-26_15h59.54.693,AB,2023.1.3,59.90901019532984,
single,dual,NUMBERS,LETTERS,7777777.0,7,1,12,f,f,1,0,0,0,0,0,1,1,1,,,,,0,0,0,0,,,,,,,,,,,,,,,,,,,23.196721199999956,23.230191700000432,23.230191700000432,23.279996900000697,,,,,,,,,,,,,,,,,,,,,,,,,,,697190,1,60,en,2024-11-26_15h59.54.693,AB,2023.1.3,59.90901019532984,
single,dual,NUMBERS,LETTERS,7777777.0,7,1,12,f,f,1,0,0,0,0,0,1,1,1,,,,,,,,,0,0,0,0,,,,,,,,,,,,,,,,,,,,,,,,23.279996900000697,23.31343090000064,23.31343090000064,23.3633976000001,PLKBSFM,23.3633976000001,23.396740400000454,23.396740400000454,23.446842800000013,,,,,,,,,,,,,697190,1,60,en,2024-11-26_15h59.54.693,AB,2023.1.3,59.90901019532984,
single,dual,NUMBERS,LETTERS,7777777.0,7,1,12,f,f,1,0,0,0,0,0,1,1,1,,,,,,,,,1,0,1,0,,,,,,,,,,,,,,,,,,,,,,,,,,,,YJXNMHF,23.446842800000013,23.480057100000522,23.480057100000522,23.53007880000041,,,,,,,,,,,,,697190,1,60,en,2024-11-26_15h59.54.693,AB,2023.1.3,59.90901019532984,
single,dual,NUMBERS,LETTERS,7777777.0,7,1,12,f,f,1,0,0,0,0,0,1,1,1,,,,,,,,,2,0,2,0,,,,,,,,,,,,,,,,,,,,,,,,,,,,QHPWTZN,23.53007880000041,23.563424100000702,23.563424100000702,23.613336899999922,,,,,,,,,,,,,697190,1,60,en,2024-11-26_15h59.54.693,AB,2023.1.3,59.90901019532984,
single,dual,NUMBERS,LETTERS,7777777.0,7,1,12,f,f,1,0,0,0,0,0,1,1,1,,,,,,,,,3,0,3,0,,,,,,,,,,,,,,,,,,,,,,,,,,,,FDZGQSM,23.613336899999922,23.646711700000196,23.646711700000196,23.696765000000596,,,,,,,,,,,,,697190,1,60,en,2024-11-26_15h59.54.693,AB,2023.1.3,59.90901019532984,
single,dual,NUMBERS,LETTERS,7777777.0,7,1,12,f,f,1,0,0,0,0,0,1,1,1,,,,,,,,,4,0,4,0,,,,,,,,,,,,,,,,,,,,,,,,,,,,GVZMNYR,23.696765000000596,23.730042400000457,23.730042400000457,23.7801915,,,,,,,,,,,,,697190,1,60,en,2024-11-26_15h59.54.693,AB,2023.1.3,59.90901019532984,
single,dual,NUMBERS,LETTERS,7777777.0,7,1,12,f,f,1,0,0,0,0,0,1,1,1,,,,,,,,,5,0,5,0,,,,,,,,,,,,,,,,,,,,,,,,,,,,YTQNBJW,23.7801915,23.813475599999947,23.813475599999947,23.863474700000552,,,,,,,,,,,,,697190,1,60,en,2024-11-26_15h59.54.693,AB,2023.1.3,59.90901019532984,
single,dual,NUMBERS,LETTERS,7777777.0,7,1,12,f,f,1,0,0,0,0,0,1,1,1,,,,,,,,,6,0,6,0,,,,,,,,,,,,,,,,,,,,,,,,,,,,GZTPXBD,23.863474700000552,23.896687100000236,23.896687100000236,23.9468267000002,,,,,,,,,,,,,697190,1,60,en,2024-11-26_15h59.54.693,AB,2023.1.3,59.90901019532984,
single,dual,NUMBERS,LETTERS,7777777.0,7,1,12,f,f,1,0,0,0,0,0,1,1,1,,,,,,,,,7,0,7,0,,,,,,,,,,,,,,,,,,,,,,,,,,,,LHYQSXV,23.9468267000002,23.980175900000177,23.980175900000177,24.030160900000737,,,,,,,,,,,,,697190,1,60,en,2024-11-26_15h59.54.693,AB,2023.1.3,59.90901019532984,
single,dual,NUMBERS,LETTERS,7777777.0,7,1,12,f,f,1,0,0,0,0,0,1,1,1,,,,,,,,,8,0,8,0,,,,,,,,,,,,,,,,,,,,,,,,,,,,BTFPMXN,24.030160900000737,24.063448300000346,24.063448300000346,24.113530999999966,,,,,,,,,,,,,697190,1,60,en,2024-11-26_15h59.54.693,AB,2023.1.3,59.90901019532984,
single,dual,NUMBERS,LETTERS,7777777.0,7,1,12,f,f,1,0,0,0,0,0,1,1,1,,,,,,,,,9,0,9,0,,,,,,,,,,,,,,,,,,,,,,,,,,,,TLQYVRD,24.113530999999966,24.146785500000078,24.146785500000078,24.19677330000013,,,,,,,,,,,,,697190,1,60,en,2024-11-26_15h59.54.693,AB,2023.1.3,59.90901019532984,
single,dual,NUMBERS,LETTERS,7777777.0,7,1,12,f,f,1,0,0,0,0,0,1,1,1,,,,,,,,,10,0,10,0,,,,,,,,,,,,,,,,,,,,,,,,,,,,PLRZMTJ,24.19677330000013,24.23024330000044,24.23024330000044,24.280117100000098,,,,,,,,,,,,,697190,1,60,en,2024-11-26_15h59.54.693,AB,2023.1.3,59.90901019532984,
single,dual,NUMBERS,LETTERS,7777777.0,7,1,12,f,f,1,0,0,0,0,0,1,1,1,,,,,,,,,11,0,11,0,,,,,,,,,,,,,,,,,,,,,,,,,,,,HYVGQCB,24.280117100000098,24.313651899999968,24.313651899999968,24.363361800000348,,,,,,,,,,,,,697190,1,60,en,2024-11-26_15h59.54.693,AB,2023.1.3,59.90901019532984,
single,dual,NUMBERS,LETTERS,7777777.0,7,1,12,f,f,1,0,0,0,0,0,1,1,1,,,,,,,,,,,,,,,,,,,,,,,,,,,,,,,,,,,,,,,,,,,,,None,0,24.363361800000348,25.34681130000081,25.34681130000081,25.363472800000636,27.346878199999992,27.346878199999992,27.346878199999992,28.3469496000007,None,0,697190,1,60,en,2024-11-26_15h59.54.693,AB,2023.1.3,59.90901019532984,
single,dual,LIPS,XXIRONX,7777777.0,7,7,6,f,j,0,0,0,0,0,0,2,2,2,0,0,0,0,,,,,,,,,,,,,,28.3469496000007,29.347132500000043,29.347132500000043,30.347128200000043,LZNYJMC,30.347128200000043,30.380414300000666,30.380414300000666,30.430610500000512,,,,,,,,,,,,,,,,,,,,,,,,,,,,,,,697190,1,60,en,2024-11-26_15h59.54.693,AB,2023.1.3,59.90901019532984,
single,dual,LIPS,XXIRONX,7777777.0,7,7,6,f,j,0,0,0,0,0,0,2,2,2,1,0,1,0,,,,,,,,,,,,,,,,,,QHVSFBX,30.430610500000512,30.463736900000185,30.463736900000185,30.513863300000594,,,,,,,,,,,,,,,,,,,,,,,,,,,,,,,697190,1,60,en,2024-11-26_15h59.54.693,AB,2023.1.3,59.90901019532984,
single,dual,LIPS,XXIRONX,7777777.0,7,7,6,f,j,0,0,0,0,0,0,2,2,2,2,0,2,0,,,,,,,,,,,,,,,,,,MVCZLDQ,30.513863300000594,30.547070200000235,30.547070200000235,30.597148700000616,,,,,,,,,,,,,,,,,,,,,,,,,,,,,,,697190,1,60,en,2024-11-26_15h59.54.693,AB,2023.1.3,59.90901019532984,
single,dual,LIPS,XXIRONX,7777777.0,7,7,6,f,j,0,0,0,0,0,0,2,2,2,3,0,3,0,,,,,,,,,,,,,,,,,,MKPGXQT,30.597148700000616,30.63065050000023,30.63065050000023,30.680549900000187,,,,,,,,,,,,,,,,,,,,,,,,,,,,,,,697190,1,60,en,2024-11-26_15h59.54.693,AB,2023.1.3,59.90901019532984,
single,dual,LIPS,XXIRONX,7777777.0,7,7,6,f,j,0,0,0,0,0,0,2,2,2,4,0,4,0,,,,,,,,,,,,,,,,,,WDHFNYS,30.680549900000187,30.713757100000294,30.713757100000294,30.76381390000006,,,,,,,,,,,,,,,,,,,,,,,,,,,,,,,697190,1,60,en,2024-11-26_15h59.54.693,AB,2023.1.3,59.90901019532984,
single,dual,LIPS,XXIRONX,7777777.0,7,7,6,f,j,0,0,0,0,0,0,2,2,2,5,0,5,0,,,,,,,,,,,,,,,,,,MZCYJTG,30.76381390000006,30.79709070000081,30.79709070000081,30.847151200000553,,,,,,,,,,,,,,,,,,,,,,,,,,,,,,,697190,1,60,en,2024-11-26_15h59.54.693,AB,2023.1.3,59.90901019532984,
single,dual,LIPS,XXIRONX,7777777.0,7,7,6,f,j,0,0,0,0,0,0,2,2,2,,,,,0,0,0,0,,,,,,,,,,,,,,,,,,,30.847151200000553,30.88044280000031,30.88044280000031,30.930500100000245,SJXFTBR,30.930500100000245,30.963760399999956,30.963760399999956,31.01382090000061,,,,,,,,,,,,,,,,,,,,,,697190,1,60,en,2024-11-26_15h59.54.693,AB,2023.1.3,59.90901019532984,
single,dual,LIPS,XXIRONX,7777777.0,7,7,6,f,j,0,0,0,0,0,0,2,2,2,,,,,1,0,1,0,,,,,,,,,,,,,,,,,,,,,,,XLMFPNW,31.01382090000061,31.047150900000815,31.047150900000815,31.097086300000228,,,,,,,,,,,,,,,,,,,,,,697190,1,60,en,2024-11-26_15h59.54.693,AB,2023.1.3,59.90901019532984,
single,dual,LIPS,XXIRONX,7777777.0,7,7,6,f,j,0,0,0,0,0,0,2,2,2,,,,,2,0,2,0,,,,,,,,,,,,,,,,,,,,,,,FVJXBNS,31.097086300000228,31.130458399999952,31.130458399999952,31.180613800000174,,,,,,,,,,,,,,,,,,,,,,697190,1,60,en,2024-11-26_15h59.54.693,AB,2023.1.3,59.90901019532984,
single,dual,LIPS,XXIRONX,7777777.0,7,7,6,f,j,0,0,0,0,0,0,2,2,2,,,,,3,0,3,0,,,,,,,,,,,,,,,,,,,,,,,ZGKLYVD,31.180613800000174,31.213843800000177,31.213843800000177,31.263885200000004,,,,,,,,,,,,,,,,,,,,,,697190,1,60,en,2024-11-26_15h59.54.693,AB,2023.1.3,59.90901019532984,
single,dual,LIPS,XXIRONX,7777777.0,7,7,6,f,j,0,0,0,0,0,0,2,2,2,,,,,4,0,4,0,,,,,,,,,,,,,,,,,,,,,,,LPHGTKN,31.263885200000004,31.297226700000465,31.297226700000465,31.347391500000413,,,,,,,,,,,,,,,,,,,,,,697190,1,60,en,2024-11-26_15h59.54.693,AB,2023.1.3,59.90901019532984,
single,dual,LIPS,XXIRONX,7777777.0,7,7,6,f,j,0,0,0,0,0,0,2,2,2,,,,,5,0,5,0,,,,,,,,,,,,,,,,,,,,,,,GPKZHXY,31.347391500000413,31.380481900000632,31.380481900000632,31.430455300000176,,,,,,,,,,,,,,,,,,,,,,697190,1,60,en,2024-11-26_15h59.54.693,AB,2023.1.3,59.90901019532984,
single,dual,LIPS,XXIRONX,7777777.0,7,7,6,f,j,0,0,0,0,0,0,2,2,2,,,,,,,,,0,0,0,0,,,,,,,,,,,,,,,,,,,,,,,,31.430455300000176,31.46391560000029,31.46391560000029,31.513777500000288,GPKZHXY,31.513777500000288,31.5471105000006,31.5471105000006,31.597173300000577,,,,,,,,,,,,,697190,1,60,en,2024-11-26_15h59.54.693,AB,2023.1.3,59.90901019532984,
single,dual,LIPS,XXIRONX,7777777.0,7,7,6,f,j,0,0,0,0,0,0,2,2,2,,,,,,,,,1,0,1,0,,,,,,,,,,,,,,,,,,,,,,,,,,,,JDCTBFV,31.597173300000577,31.63061420000031,31.63061420000031,31.680632399999922,,,,,,,,,,,,,697190,1,60,en,2024-11-26_15h59.54.693,AB,2023.1.3,59.90901019532984,
single,dual,LIPS,XXIRONX,7777777.0,7,7,6,f,j,0,0,0,0,0,0,2,2,2,,,,,,,,,2,0,2,0,,,,,,,,,,,,,,,,,,,,,,,,,,,,WGCPFMB,31.680632399999922,31.71380550000049,31.71380550000049,31.76406610000049,,,,,,,,,,,,,697190,1,60,en,2024-11-26_15h59.54.693,AB,2023.1.3,59.90901019532984,
single,dual,LIPS,XXIRONX,7777777.0,7,7,6,f,j,0,0,0,0,0,0,2,2,2,,,,,,,,,3,0,3,0,,,,,,,,,,,,,,,,,,,,,,,,,,,,XGSVFRZ,31.76406610000049,31.797215399999914,31.797215399999914,31.84715099999994,,,,,,,,,,,,,697190,1,60,en,2024-11-26_15h59.54.693,AB,2023.1.3,59.90901019532984,
single,dual,LIPS,XXIRONX,7777777.0,7,7,6,f,j,0,0,0,0,0,0,2,2,2,,,,,,,,,4,0,4,0,,,,,,,,,,,,,,,,,,,,,,,,,,,,QTVPDHX,31.84715099999994,31.880470800000694,31.880470800000694,31.930624500000704,,,,,,,,,,,,,697190,1,60,en,2024-11-26_15h59.54.693,AB,2023.1.3,59.90901019532984,
single,dual,LIPS,XXIRONX,7777777.0,7,7,6,f,j,0,0,0,0,0,0,2,2,2,,,,,,,,,5,0,5,0,,,,,,,,,,,,,,,,,,,,,,,,,,,,ZHSWYVJ,31.930624500000704,31.963799400000426,31.963799400000426,32.01410710000073,,,,,,,,,,,,,697190,1,60,en,2024-11-26_15h59.54.693,AB,2023.1.3,59.90901019532984,
single,dual,LIPS,XXIRONX,7777777.0,7,7,6,f,j,0,0,0,0,0,0,2,2,2,,,,,,,,,,,,,,,,,,,,,,,,,,,,,,,,,,,,,,,,,,,,,None,0,32.01410710000073,32.99737110000024,32.99737110000024,33.0138749000007,34.99732790000053,34.99732790000053,34.99732790000053,35.9974957000004,None,0,697190,1,60,en,2024-11-26_15h59.54.693,AB,2023.1.3,59.90901019532984,
single,dual,WAG,XTRAINX,3333333.0,10,3,7,f,j,0,0,0,0,0,0,3,3,3,0,0,0,0,,,,,,,,,,,,,,35.9974957000004,36.99741950000043,36.99741950000043,37.99758910000037,SFBQCRK,37.99758910000037,38.03101170000082,38.03101170000082,38.08085320000009,,,,,,,,,,,,,,,,,,,,,,,,,,,,,,,697190,1,60,en,2024-11-26_15h59.54.693,AB,2023.1.3,59.90901019532984,
single,dual,WAG,XTRAINX,3333333.0,10,3,7,f,j,0,0,0,0,0,0,3,3,3,1,0,1,0,,,,,,,,,,,,,,,,,,TBPZNGF,38.08085320000009,38.1141834,38.1141834,38.1642324000004,,,,,,,,,,,,,,,,,,,,,,,,,,,,,,,697190,1,60,en,2024-11-26_15h59.54.693,AB,2023.1.3,59.90901019532984,
single,dual,WAG,XTRAINX,3333333.0,10,3,7,f,j,0,0,0,0,0,0,3,3,3,2,0,2,0,,,,,,,,,,,,,,,,,,HYRJWSP,38.1642324000004,38.19752570000037,38.19752570000037,38.24754040000062,,,,,,,,,,,,,,,,,,,,,,,,,,,,,,,697190,1,60,en,2024-11-26_15h59.54.693,AB,2023.1.3,59.90901019532984,
single,dual,WAG,XTRAINX,3333333.0,10,3,7,f,j,0,0,0,0,0,0,3,3,3,3,0,3,0,,,,,,,,,,,,,,,,,,ZLBNFGJ,38.24754040000062,38.28081330000077,38.28081330000077,38.33081889999994,,,,,,,,,,,,,,,,,,,,,,,,,,,,,,,697190,1,60,en,2024-11-26_15h59.54.693,AB,2023.1.3,59.90901019532984,
single,dual,WAG,XTRAINX,3333333.0,10,3,7,f,j,0,0,0,0,0,0,3,3,3,4,0,4,0,,,,,,,,,,,,,,,,,,VQFTMCL,38.33081889999994,38.36473770000066,38.36473770000066,38.41422320000038,,,,,,,,,,,,,,,,,,,,,,,,,,,,,,,697190,1,60,en,2024-11-26_15h59.54.693,AB,2023.1.3,59.90901019532984,
single,dual,WAG,XTRAINX,3333333.0,10,3,7,f,j,0,0,0,0,0,0,3,3,3,5,0,5,0,,,,,,,,,,,,,,,,,,KLTBWFM,38.41422320000038,38.44755200000054,38.44755200000054,38.49756610000077,,,,,,,,,,,,,,,,,,,,,,,,,,,,,,,697190,1,60,en,2024-11-26_15h59.54.693,AB,2023.1.3,59.90901019532984,
single,dual,WAG,XTRAINX,3333333.0,10,3,7,f,j,0,0,0,0,0,0,3,3,3,6,0,6,0,,,,,,,,,,,,,,,,,,ZGTQHCP,38.49756610000077,38.530849200000375,38.530849200000375,38.58083239999996,,,,,,,,,,,,,,,,,,,,,,,,,,,,,,,697190,1,60,en,2024-11-26_15h59.54.693,AB,2023.1.3,59.90901019532984,
single,dual,WAG,XTRAINX,3333333.0,10,3,7,f,j,0,0,0,0,0,0,3,3,3,7,0,7,0,,,,,,,,,,,,,,,,,,QSHPRCD,38.58083239999996,38.614199100000405,38.614199100000405,38.66432420000001,,,,,,,,,,,,,,,,,,,,,,,,,,,,,,,697190,1,60,en,2024-11-26_15h59.54.693,AB,2023.1.3,59.90901019532984,
single,dual,WAG,XTRAINX,3333333.0,10,3,7,f,j,0,0,0,0,0,0,3,3,3,8,0,8,0,,,,,,,,,,,,,,,,,,HPCSLXT,38.66432420000001,38.697702700000264,38.697702700000264,38.74776740000016,,,,,,,,,,,,,,,,,,,,,,,,,,,,,,,697190,1,60,en,2024-11-26_15h59.54.693,AB,2023.1.3,59.90901019532984,
single,dual,WAG,XTRAINX,3333333.0,10,3,7,f,j,0,0,0,0,0,0,3,3,3,,,,,0,0,0,0,,,,,,,,,,,,,,,,,,,38.74776740000016,38.781301500000154,38.781301500000154,38.83088520000001,PZWSMGY,38.83088520000001,38.86419350000051,38.86419350000051,38.914395499999955,,,,,,,,,,,,,,,,,,,,,,697190,1,60,en,2024-11-26_15h59.54.693,AB,2023.1.3,59.90901019532984,
single,dual,WAG,XTRAINX,3333333.0,10,3,7,f,j,0,0,0,0,0,0,3,3,3,,,,,1,0,1,0,,,,,,,,,,,,,,,,,,,,,,,MSKJTQN,38.914395499999955,38.94802419999996,38.94802419999996,38.99756940000043,,,,,,,,,,,,,,,,,,,,,,697190,1,60,en,2024-11-26_15h59.54.693,AB,2023.1.3,59.90901019532984,
single,dual,WAG,XTRAINX,3333333.0,10,3,7,f,j,0,0,0,0,0,0,3,3,3,,,,,,,,,0,0,0,0,,,,,,,,,,,,,,,,,,,,,,,,38.99756940000043,39.031089500000235,39.031089500000235,39.08102520000011,MSKJTQN,39.08102520000011,39.114290900000015,39.114290900000015,39.16424830000051,,,,,,,,,,,,,697190,1,60,en,2024-11-26_15h59.54.693,AB,2023.1.3,59.90901019532984,
single,dual,WAG,XTRAINX,3333333.0,10,3,7,f,j,0,0,0,0,0,0,3,3,3,,,,,,,,,1,0,1,0,,,,,,,,,,,,,,,,,,,,,,,,,,,,QLCSFDZ,39.16424830000051,39.1975951000004,39.1975951000004,39.24776560000009,,,,,,,,,,,,,697190,1,60,en,2024-11-26_15h59.54.693,AB,2023.1.3,59.90901019532984,
single,dual,WAG,XTRAINX,3333333.0,10,3,7,f,j,0,0,0,0,0,0,3,3,3,,,,,,,,,2,0,2,0,,,,,,,,,,,,,,,,,,,,,,,,,,,,WSDXZVM,39.24776560000009,39.28104060000078,39.28104060000078,39.331025899999986,,,,,,,,,,,,,697190,1,60,en,2024-11-26_15h59.54.693,AB,2023.1.3,59.90901019532984,
single,dual,WAG,XTRAINX,3333333.0,10,3,7,f,j,0,0,0,0,0,0,3,3,3,,,,,,,,,3,0,3,0,,,,,,,,,,,,,,,,,,,,,,,,,,,,BJMHTGF,39.331025899999986,39.3643389000008,39.3643389000008,39.41434329999993,,,,,,,,,,,,,697190,1,60,en,2024-11-26_15h59.54.693,AB,2023.1.3,59.90901019532984,
single,dual,WAG,XTRAINX,3333333.0,10,3,7,f,j,0,0,0,0,0,0,3,3,3,,,,,,,,,4,0,4,0,,,,,,,,,,,,,,,,,,,,,,,,,,,,YCMBSGD,39.41434329999993,39.44764490000034,39.44764490000034,39.49759610000001,,,,,,,,,,,,,697190,1,60,en,2024-11-26_15h59.54.693,AB,2023.1.3,59.90901019532984,
single,dual,WAG,XTRAINX,3333333.0,10,3,7,f,j,0,0,0,0,0,0,3,3,3,,,,,,,,,5,0,5,0,,,,,,,,,,,,,,,,,,,,,,,,,,,,SVFDYJH,39.49759610000001,39.53102460000082,39.53102460000082,39.5809461000008,,,,,,,,,,,,,697190,1,60,en,2024-11-26_15h59.54.693,AB,2023.1.3,59.90901019532984,
single,dual,WAG,XTRAINX,3333333.0,10,3,7,f,j,0,0,0,0,0,0,3,3,3,,,,,,,,,6,0,6,0,,,,,,,,,,,,,,,,,,,,,,,,,,,,XSWVFGQ,39.5809461000008,39.614305300000524,39.614305300000524,39.66437000000042,,,,,,,,,,,,,697190,1,60,en,2024-11-26_15h59.54.693,AB,2023.1.3,59.90901019532984,
single,dual,WAG,XTRAINX,3333333.0,10,3,7,f,j,0,0,0,0,0,0,3,3,3,,,,,,,,,,,,,,,,,,,,,,,,,,,,,,,,,,,,,,,,,,,,,None,0,39.66437000000042,40.647701300000335,40.647701300000335,40.66430130000026,42.64788040000076,42.64788040000076,42.64788040000076,43.64782770000056,None,0,697190,1,60,en,2024-11-26_15h59.54.693,AB,2023.1.3,59.90901019532984,
single,dual,PLUMBER,XWHITEX,2222222.0,10,1,9,j,j,0,0,0,0,0,0,4,4,4,0,0,0,0,,,,,,,,,,,,,,43.64782770000056,44.648059699999976,44.648059699999976,45.64795090000007,CLKSNMJ,45.64795090000007,45.68126630000006,45.68126630000006,45.73126410000077,,,,,,,,,,,,,,,,,,,,,,,,,,,,,,,697190,1,60,en,2024-11-26_15h59.54.693,AB,2023.1.3,59.90901019532984,
single,dual,PLUMBER,XWHITEX,2222222.0,10,1,9,j,j,0,0,0,0,0,0,4,4,4,1,0,1,0,,,,,,,,,,,,,,,,,,RVJBDHG,45.73126410000077,45.76485550000052,45.76485550000052,45.81469190000007,,,,,,,,,,,,,,,,,,,,,,,,,,,,,,,697190,1,60,en,2024-11-26_15h59.54.693,AB,2023.1.3,59.90901019532984,
single,dual,PLUMBER,XWHITEX,2222222.0,10,1,9,j,j,0,0,0,0,0,0,4,4,4,2,0,2,0,,,,,,,,,,,,,,,,,,QBGSHNP,45.81469190000007,45.84807350000028,45.84807350000028,45.89795580000009,,,,,,,,,,,,,,,,,,,,,,,,,,,,,,,697190,1,60,en,2024-11-26_15h59.54.693,AB,2023.1.3,59.90901019532984,
single,dual,PLUMBER,XWHITEX,2222222.0,10,1,9,j,j,0,0,0,0,0,0,4,4,4,3,0,3,0,,,,,,,,,,,,,,,,,,TZDSWXM,45.89795580000009,45.93127790000017,45.93127790000017,45.98124000000007,,,,,,,,,,,,,,,,,,,,,,,,,,,,,,,697190,1,60,en,2024-11-26_15h59.54.693,AB,2023.1.3,59.90901019532984,
single,dual,PLUMBER,XWHITEX,2222222.0,10,1,9,j,j,0,0,0,0,0,0,4,4,4,4,0,4,0,,,,,,,,,,,,,,,,,,FWVPSZT,45.98124000000007,46.01465980000012,46.01465980000012,46.06459260000065,,,,,,,,,,,,,,,,,,,,,,,,,,,,,,,697190,1,60,en,2024-11-26_15h59.54.693,AB,2023.1.3,59.90901019532984,
single,dual,PLUMBER,XWHITEX,2222222.0,10,1,9,j,j,0,0,0,0,0,0,4,4,4,5,0,5,0,,,,,,,,,,,,,,,,,,SQDHYGV,46.06459260000065,46.09800560000076,46.09800560000076,46.14795970000068,,,,,,,,,,,,,,,,,,,,,,,,,,,,,,,697190,1,60,en,2024-11-26_15h59.54.693,AB,2023.1.3,59.90901019532984,
single,dual,PLUMBER,XWHITEX,2222222.0,10,1,9,j,j,0,0,0,0,0,0,4,4,4,6,0,6,0,,,,,,,,,,,,,,,,,,KJXTDPB,46.14795970000068,46.18154390000018,46.18154390000018,46.231314399999974,,,,,,,,,,,,,,,,,,,,,,,,,,,,,,,697190,1,60,en,2024-11-26_15h59.54.693,AB,2023.1.3,59.90901019532984,
single,dual,PLUMBER,XWHITEX,2222222.0,10,1,9,j,j,0,0,0,0,0,0,4,4,4,7,0,7,0,,,,,,,,,,,,,,,,,,ZLWCHMX,46.231314399999974,46.264828400000624,46.264828400000624,46.31466309999996,,,,,,,,,,,,,,,,,,,,,,,,,,,,,,,697190,1,60,en,2024-11-26_15h59.54.693,AB,2023.1.3,59.90901019532984,
single,dual,PLUMBER,XWHITEX,2222222.0,10,1,9,j,j,0,0,0,0,0,0,4,4,4,8,0,8,0,,,,,,,,,,,,,,,,,,TJNVRKM,46.31466309999996,46.34794779999993,46.34794779999993,46.397989699999926,,,,,,,,,,,,,,,,,,,,,,,,,,,,,,,697190,1,60,en,2024-11-26_15h59.54.693,AB,2023.1.3,59.90901019532984,
single,dual,PLUMBER,XWHITEX,2222222.0,10,1,9,j,j,0,0,0,0,0,0,4,4,4,,,,,0,0,0,0,,,,,,,,,,,,,,,,,,,46.397989699999926,46.43136340000001,46.43136340000001,46.48132100000021,,,,,,,,,,,,,,,,,,,,,,,,,,,697190,1,60,en,2024-11-26_15h59.54.693,AB,2023.1.3,59.90901019532984,
single,dual,PLUMBER,XWHITEX,2222222.0,10,1,9,j,j,0,0,0,0,0,0,4,4,4,,,,,,,,,0,0,0,0,,,,,,,,,,,,,,,,,,,,,,,,46.48132100000021,46.51495760000034,46.51495760000034,46.56467620000058,VGJHLMB,46.56467620000058,46.5984840000001,46.5984840000001,46.64800850000029,,,,,,,,,,,,,697190,1,60,en,2024-11-26_15h59.54.693,AB,2023.1.3,59.90901019532984,
single,dual,PLUMBER,XWHITEX,2222222.0,10,1,9,j,j,0,0,0,0,0,0,4,4,4,,,,,,,,,1,0,1,0,,,,,,,,,,,,,,,,,,,,,,,,,,,,CBMWSNX,46.64800850000029,46.68136360000062,46.68136360000062,46.73135580000053,,,,,,,,,,,,,697190,1,60,en,2024-11-26_15h59.54.693,AB,2023.1.3,59.90901019532984,
single,dual,PLUMBER,XWHITEX,2222222.0,10,1,9,j,j,0,0,0,0,0,0,4,4,4,,,,,,,,,2,0,2,0,,,,,,,,,,,,,,,,,,,,,,,,,,,,CYLMSRG,46.73135580000053,46.764662900000076,46.764662900000076,46.814733800000795,,,,,,,,,,,,,697190,1,60,en,2024-11-26_15h59.54.693,AB,2023.1.3,59.90901019532984,
single,dual,PLUMBER,XWHITEX,2222222.0,10,1,9,j,j,0,0,0,0,0,0,4,4,4,,,,,,,,,3,0,3,0,,,,,,,,,,,,,,,,,,,,,,,,,,,,HKFBGQX,46.814733800000795,46.84800940000059,46.84800940000059,46.898011100000076,,,,,,,,,,,,,697190,1,60,en,2024-11-26_15h59.54.693,AB,2023.1.3,59.90901019532984,
single,dual,PLUMBER,XWHITEX,2222222.0,10,1,9,j,j,0,0,0,0,0,0,4,4,4,,,,,,,,,4,0,4,0,,,,,,,,,,,,,,,,,,,,,,,,,,,,KRFLYMQ,46.898011100000076,46.931376600000476,46.931376600000476,46.9813778000007,,,,,,,,,,,,,697190,1,60,en,2024-11-26_15h59.54.693,AB,2023.1.3,59.90901019532984,
single,dual,PLUMBER,XWHITEX,2222222.0,10,1,9,j,j,0,0,0,0,0,0,4,4,4,,,,,,,,,5,0,5,0,,,,,,,,,,,,,,,,,,,,,,,,,,,,FXTJGYR,46.9813778000007,47.01468650000061,47.01468650000061,47.06468120000045,,,,,,,,,,,,,697190,1,60,en,2024-11-26_15h59.54.693,AB,2023.1.3,59.90901019532984,
single,dual,PLUMBER,XWHITEX,2222222.0,10,1,9,j,j,0,0,0,0,0,0,4,4,4,,,,,,,,,6,0,6,0,,,,,,,,,,,,,,,,,,,,,,,,,,,,QTNWSDX,47.06468120000045,47.09804280000026,47.09804280000026,47.148047300000144,,,,,,,,,,,,,697190,1,60,en,2024-11-26_15h59.54.693,AB,2023.1.3,59.90901019532984,
single,dual,PLUMBER,XWHITEX,2222222.0,10,1,9,j,j,0,0,0,0,0,0,4,4,4,,,,,,,,,7,0,7,0,,,,,,,,,,,,,,,,,,,,,,,,,,,,DHJTLXC,47.148047300000144,47.18131910000011,47.18131910000011,47.231579400000555,,,,,,,,,,,,,697190,1,60,en,2024-11-26_15h59.54.693,AB,2023.1.3,59.90901019532984,
single,dual,PLUMBER,XWHITEX,2222222.0,10,1,9,j,j,0,0,0,0,0,0,4,4,4,,,,,,,,,8,0,8,0,,,,,,,,,,,,,,,,,,,,,,,,,,,,TFJGLDX,47.231579400000555,47.26466940000046,47.26466940000046,47.314703400000326,,,,,,,,,,,,,697190,1,60,en,2024-11-26_15h59.54.693,AB,2023.1.3,59.90901019532984,
single,dual,PLUMBER,XWHITEX,2222222.0,10,1,9,j,j,0,0,0,0,0,0,4,4,4,,,,,,,,,,,,,,,,,,,,,,,,,,,,,,,,,,,,,,,,,,,,,None,0,47.314703400000326,48.29809370000021,48.29809370000021,48.3149798000004,50.298207800000455,50.298207800000455,50.298207800000455,51.29824550000012,None,0,697190,1,60,en,2024-11-26_15h59.54.693,AB,2023.1.3,59.90901019532984,
single,dual,SCRATCH,XXITCHX,5555555.0,10,3,7,f,f,1,0,0,0,0,0,5,5,5,0,0,0,0,,,,,,,,,,,,,,51.29824550000012,52.28161460000047,52.29836790000081,53.28189670000029,HSPFBXK,53.298503200000596,53.33171459999994,53.31503790000079,53.36500570000044,,,,,,,,,,,,,,,,,,,,,,,,,,,,,,,697190,1,60,en,2024-11-26_15h59.54.693,AB,2023.1.3,59.90901019532984,
single,dual,SCRATCH,XXITCHX,5555555.0,10,3,7,f,f,1,0,0,0,0,0,5,5,5,1,0,1,0,,,,,,,,,,,,,,,,,,LHPSNJZ,53.36500570000044,53.39834770000016,53.39834770000016,53.44839960000081,,,,,,,,,,,,,,,,,,,,,,,,,,,,,,,697190,1,60,en,2024-11-26_15h59.54.693,AB,2023.1.3,59.90901019532984,
single,dual,SCRATCH,XXITCHX,5555555.0,10,3,7,f,f,1,0,0,0,0,0,5,5,5,2,0,2,0,,,,,,,,,,,,,,,,,,GFSTLYQ,53.44839960000081,53.48168810000061,53.48168810000061,53.53168150000056,,,,,,,,,,,,,,,,,,,,,,,,,,,,,,,697190,1,60,en,2024-11-26_15h59.54.693,AB,2023.1.3,59.90901019532984,
single,dual,SCRATCH,XXITCHX,5555555.0,10,3,7,f,f,1,0,0,0,0,0,5,5,5,3,0,3,0,,,,,,,,,,,,,,,,,,GTZVCSB,53.53168150000056,53.56515740000032,53.56515740000032,53.615245300000424,,,,,,,,,,,,,,,,,,,,,,,,,,,,,,,697190,1,60,en,2024-11-26_15h59.54.693,AB,2023.1.3,59.90901019532984,
single,dual,SCRATCH,XXITCHX,5555555.0,10,3,7,f,f,1,0,0,0,0,0,5,5,5,4,0,4,0,,,,,,,,,,,,,,,,,,JQNHGWT,53.615245300000424,53.64858120000008,53.64858120000008,53.69838840000011,,,,,,,,,,,,,,,,,,,,,,,,,,,,,,,697190,1,60,en,2024-11-26_15h59.54.693,AB,2023.1.3,59.90901019532984,
single,dual,SCRATCH,XXITCHX,5555555.0,10,3,7,f,f,1,0,0,0,0,0,5,5,5,5,0,5,0,,,,,,,,,,,,,,,,,,QHYBWPF,53.69838840000011,53.73173339999994,53.73173339999994,53.78173880000031,,,,,,,,,,,,,,,,,,,,,,,,,,,,,,,697190,1,60,en,2024-11-26_15h59.54.693,AB,2023.1.3,59.90901019532984,
single,dual,SCRATCH,XXITCHX,5555555.0,10,3,7,f,f,1,0,0,0,0,0,5,5,5,6,0,6,0,,,,,,,,,,,,,,,,,,ZVTHCDM,53.78173880000031,53.815111900000375,53.815111900000375,53.86506980000013,,,,,,,,,,,,,,,,,,,,,,,,,,,,,,,697190,1,60,en,2024-11-26_15h59.54.693,AB,2023.1.3,59.90901019532984,
single,dual,SCRATCH,XXITCHX,5555555.0,10,3,7,f,f,1,0,0,0,0,0,5,5,5,7,0,7,0,,,,,,,,,,,,,,,,,,XDPFBLC,53.86506980000013,53.89843800000017,53.89843800000017,53.94838620000064,,,,,,,,,,,,,,,,,,,,,,,,,,,,,,,697190,1,60,en,2024-11-26_15h59.54.693,AB,2023.1.3,59.90901019532984,
single,dual,SCRATCH,XXITCHX,5555555.0,10,3,7,f,f,1,0,0,0,0,0,5,5,5,8,0,8,0,,,,,,,,,,,,,,,,,,RLSDCTP,53.94838620000064,53.98175600000013,53.98175600000013,54.03171939999993,,,,,,,,,,,,,,,,,,,,,,,,,,,,,,,697190,1,60,en,2024-11-26_15h59.54.693,AB,2023.1.3,59.90901019532984,
single,dual,SCRATCH,XXITCHX,5555555.0,10,3,7,f,f,1,0,0,0,0,0,5,5,5,,,,,0,0,0,0,,,,,,,,,,,,,,,,,,,54.03171939999993,54.06521460000022,54.06521460000022,54.11519970000063,SNLPYWJ,54.11519970000063,54.148391800000354,54.148391800000354,54.19842260000041,,,,,,,,,,,,,,,,,,,,,,697190,1,60,en,2024-11-26_15h59.54.693,AB,2023.1.3,59.90901019532984,
single,dual,SCRATCH,XXITCHX,5555555.0,10,3,7,f,f,1,0,0,0,0,0,5,5,5,,,,,1,0,1,0,,,,,,,,,,,,,,,,,,,,,,,LQFZNWC,54.19842260000041,54.23175090000041,54.23175090000041,54.28175530000044,,,,,,,,,,,,,,,,,,,,,,697190,1,60,en,2024-11-26_15h59.54.693,AB,2023.1.3,59.90901019532984,
single,dual,SCRATCH,XXITCHX,5555555.0,10,3,7,f,f,1,0,0,0,0,0,5,5,5,,,,,,,,,0,0,0,0,,,,,,,,,,,,,,,,,,,,,,,,54.28175530000044,54.315240700000686,54.315240700000686,54.36507530000017,LQFZNWC,54.36507530000017,54.39841770000021,54.39841770000021,54.44844640000065,,,,,,,,,,,,,697190,1,60,en,2024-11-26_15h59.54.693,AB,2023.1.3,59.90901019532984,
single,dual,SCRATCH,XXITCHX,5555555.0,10,3,7,f,f,1,0,0,0,0,0,5,5,5,,,,,,,,,1,0,1,0,,,,,,,,,,,,,,,,,,,,,,,,,,,,WCBFVHQ,54.44844640000065,54.48176970000077,54.48176970000077,54.53175460000057,,,,,,,,,,,,,697190,1,60,en,2024-11-26_15h59.54.693,AB,2023.1.3,59.90901019532984,
single,dual,SCRATCH,XXITCHX,5555555.0,10,3,7,f,f,1,0,0,0,0,0,5,5,5,,,,,,,,,2,0,2,0,,,,,,,,,,,,,,,,,,,,,,,,,,,,QZGYFTJ,54.53175460000057,54.56511540000065,54.56511540000065,54.61519130000033,,,,,,,,,,,,,697190,1,60,en,2024-11-26_15h59.54.693,AB,2023.1.3,59.90901019532984,
single,dual,SCRATCH,XXITCHX,5555555.0,10,3,7,f,f,1,0,0,0,0,0,5,5,5,,,,,,,,,3,0,3,0,,,,,,,,,,,,,,,,,,,,,,,,,,,,WHSRBTZ,54.61519130000033,54.64841090000027,54.64841090000027,54.69847520000076,,,,,,,,,,,,,697190,1,60,en,2024-11-26_15h59.54.693,AB,2023.1.3,59.90901019532984,
single,dual,SCRATCH,XXITCHX,5555555.0,10,3,7,f,f,1,0,0,0,0,0,5,5,5,,,,,,,,,4,0,4,0,,,,,,,,,,,,,,,,,,,,,,,,,,,,XRSGKVM,54.69847520000076,54.731717700000445,54.731717700000445,54.78175620000002,,,,,,,,,,,,,697190,1,60,en,2024-11-26_15h59.54.693,AB,2023.1.3,59.90901019532984,
single,dual,SCRATCH,XXITCHX,5555555.0,10,3,7,f,f,1,0,0,0,0,0,5,5,5,,,,,,,,,5,0,5,0,,,,,,,,,,,,,,,,,,,,,,,,,,,,WGTLHVN,54.78175620000002,54.81512610000027,54.81512610000027,54.86508500000036,,,,,,,,,,,,,697190,1,60,en,2024-11-26_15h59.54.693,AB,2023.1.3,59.90901019532984,
single,dual,SCRATCH,XXITCHX,5555555.0,10,3,7,f,f,1,0,0,0,0,0,5,5,5,,,,,,,,,6,0,6,0,,,,,,,,,,,,,,,,,,,,,,,,,,,,YDVLFHX,54.86508500000036,54.89845990000049,54.89845990000049,54.94851000000017,,,,,,,,,,,,,697190,1,60,en,2024-11-26_15h59.54.693,AB,2023.1.3,59.90901019532984,
single,dual,SCRATCH,XXITCHX,5555555.0,10,3,7,f,f,1,0,0,0,0,0,5,5,5,,,,,,,,,,,,,,,,,,,,,,,,,,,,,,,,,,,,,,,,,,,,,None,0,54.94851000000017,55.93181249999998,55.93181249999998,55.948529600000256,57.932042600000386,57.932042600000386,57.932042600000386,58.932054300000345,None,0,697190,1,60,en,2024-11-26_15h59.54.693,AB,2023.1.3,59.90901019532984,
single,dual,ANIMALS,XXZOOXX,5555555.0,10,3,7,f,f,1,0,0,0,0,0,6,6,6,0,0,0,0,,,,,,,,,,,,,,58.932054300000345,59.93203740000081,59.93203740000081,60.93211930000052,MQNHPYW,60.93211930000052,60.96547360000022,60.96547360000022,61.015499699999964,,,,,,,,,,,,,,,,,,,,,,,,,,,,,,,697190,1,60,en,2024-11-26_15h59.54.693,AB,2023.1.3,59.90901019532984,
single,dual,ANIMALS,XXZOOXX,5555555.0,10,3,7,f,f,1,0,0,0,0,0,6,6,6,1,0,1,0,,,,,,,,,,,,,,,,,,TDLFMWV,61.015499699999964,61.04875300000003,61.04875300000003,61.09883450000052,,,,,,,,,,,,,,,,,,,,,,,,,,,,,,,697190,1,60,en,2024-11-26_15h59.54.693,AB,2023.1.3,59.90901019532984,
single,dual,ANIMALS,XXZOOXX,5555555.0,10,3,7,f,f,1,0,0,0,0,0,6,6,6,2,0,2,0,,,,,,,,,,,,,,,,,,RLGDHPN,61.09883450000052,61.13220860000001,61.13220860000001,61.182235900000705,,,,,,,,,,,,,,,,,,,,,,,,,,,,,,,697190,1,60,en,2024-11-26_15h59.54.693,AB,2023.1.3,59.90901019532984,
single,dual,ANIMALS,XXZOOXX,5555555.0,10,3,7,f,f,1,0,0,0,0,0,6,6,6,3,0,3,0,,,,,,,,,,,,,,,,,,XGMWQFH,61.182235900000705,61.21552530000008,61.21552530000008,61.26547590000064,,,,,,,,,,,,,,,,,,,,,,,,,,,,,,,697190,1,60,en,2024-11-26_15h59.54.693,AB,2023.1.3,59.90901019532984,
single,dual,ANIMALS,XXZOOXX,5555555.0,10,3,7,f,f,1,0,0,0,0,0,6,6,6,4,0,4,0,,,,,,,,,,,,,,,,,,XBZFNKG,61.26547590000064,61.29877540000052,61.29877540000052,61.34884710000006,,,,,,,,,,,,,,,,,,,,,,,,,,,,,,,697190,1,60,en,2024-11-26_15h59.54.693,AB,2023.1.3,59.90901019532984,
single,dual,ANIMALS,XXZOOXX,5555555.0,10,3,7,f,f,1,0,0,0,0,0,6,6,6,5,0,5,0,,,,,,,,,,,,,,,,,,DHFXNYQ,61.34884710000006,61.38215510000009,61.38215510000009,61.432154699999955,,,,,,,,,,,,,,,,,,,,,,,,,,,,,,,697190,1,60,en,2024-11-26_15h59.54.693,AB,2023.1.3,59.90901019532984,
single,dual,ANIMALS,XXZOOXX,5555555.0,10,3,7,f,f,1,0,0,0,0,0,6,6,6,6,0,6,0,,,,,,,,,,,,,,,,,,HDSTLBM,61.432154699999955,61.46548789999997,61.46548789999997,61.51549400000022,,,,,,,,,,,,,,,,,,,,,,,,,,,,,,,697190,1,60,en,2024-11-26_15h59.54.693,AB,2023.1.3,59.90901019532984,
single,dual,ANIMALS,XXZOOXX,5555555.0,10,3,7,f,f,1,0,0,0,0,0,6,6,6,7,0,7,0,,,,,,,,,,,,,,,,,,PZJFCWG,61.51549400000022,61.548858900000596,61.548858900000596,61.59887030000027,,,,,,,,,,,,,,,,,,,,,,,,,,,,,,,697190,1,60,en,2024-11-26_15h59.54.693,AB,2023.1.3,59.90901019532984,
single,dual,ANIMALS,XXZOOXX,5555555.0,10,3,7,f,f,1,0,0,0,0,0,6,6,6,8,0,8,0,,,,,,,,,,,,,,,,,,FXRTSKM,61.59887030000027,61.63219340000069,61.63219340000069,61.682213900000534,,,,,,,,,,,,,,,,,,,,,,,,,,,,,,,697190,1,60,en,2024-11-26_15h59.54.693,AB,2023.1.3,59.90901019532984,
single,dual,ANIMALS,XXZOOXX,5555555.0,10,3,7,f,f,1,0,0,0,0,0,6,6,6,,,,,0,0,0,0,,,,,,,,,,,,,,,,,,,61.682213900000534,61.715731100000085,61.715731100000085,61.76552410000022,FLHJDPR,61.76552410000022,61.79887880000024,61.79887880000024,61.84908859999996,,,,,,,,,,,,,,,,,,,,,,697190,1,60,en,2024-11-26_15h59.54.693,AB,2023.1.3,59.90901019532984,
single,dual,ANIMALS,XXZOOXX,5555555.0,10,3,7,f,f,1,0,0,0,0,0,6,6,6,,,,,1,0,1,0,,,,,,,,,,,,,,,,,,,,,,,RQJHKTM,61.84908859999996,61.88217480000003,61.88217480000003,61.93213360000027,,,,,,,,,,,,,,,,,,,,,,697190,1,60,en,2024-11-26_15h59.54.693,AB,2023.1.3,59.90901019532984,
single,dual,ANIMALS,XXZOOXX,5555555.0,10,3,7,f,f,1,0,0,0,0,0,6,6,6,,,,,,,,,0,0,0,0,,,,,,,,,,,,,,,,,,,,,,,,61.93213360000027,61.965534599999955,61.965534599999955,62.015532400000666,RQJHKTM,62.015532400000666,62.04907640000056,62.04907640000056,62.098843300000226,,,,,,,,,,,,,697190,1,60,en,2024-11-26_15h59.54.693,AB,2023.1.3,59.90901019532984,
single,dual,ANIMALS,XXZOOXX,5555555.0,10,3,7,f,f,1,0,0,0,0,0,6,6,6,,,,,,,,,1,0,1,0,,,,,,,,,,,,,,,,,,,,,,,,,,,,WMSDQRB,62.098843300000226,62.132240300000376,62.132240300000376,62.18217249999998,,,,,,,,,,,,,697190,1,60,en,2024-11-26_15h59.54.693,AB,2023.1.3,59.90901019532984,
single,dual,ANIMALS,XXZOOXX,5555555.0,10,3,7,f,f,1,0,0,0,0,0,6,6,6,,,,,,,,,2,0,2,0,,,,,,,,,,,,,,,,,,,,,,,,,,,,LBMXWTR,62.18217249999998,62.21553290000065,62.21553290000065,62.26556290000008,,,,,,,,,,,,,697190,1,60,en,2024-11-26_15h59.54.693,AB,2023.1.3,59.90901019532984,
single,dual,ANIMALS,XXZOOXX,5555555.0,10,3,7,f,f,1,0,0,0,0,0,6,6,6,,,,,,,,,3,0,3,0,,,,,,,,,,,,,,,,,,,,,,,,,,,,MQXJRVW,62.26556290000008,62.29901470000004,62.29901470000004,62.34888300000057,,,,,,,,,,,,,697190,1,60,en,2024-11-26_15h59.54.693,AB,2023.1.3,59.90901019532984,
single,dual,ANIMALS,XXZOOXX,5555555.0,10,3,7,f,f,1,0,0,0,0,0,6,6,6,,,,,,,,,4,0,4,0,,,,,,,,,,,,,,,,,,,,,,,,,,,,TNJFXLC,62.34888300000057,62.38225550000061,62.38225550000061,62.43221310000081,,,,,,,,,,,,,697190,1,60,en,2024-11-26_15h59.54.693,AB,2023.1.3,59.90901019532984,
single,dual,ANIMALS,XXZOOXX,5555555.0,10,3,7,f,f,1,0,0,0,0,0,6,6,6,,,,,,,,,5,0,5,0,,,,,,,,,,,,,,,,,,,,,,,,,,,,GDKXJST,62.43221310000081,62.465669700000035,62.465669700000035,62.515631100000064,,,,,,,,,,,,,697190,1,60,en,2024-11-26_15h59.54.693,AB,2023.1.3,59.90901019532984,
single,dual,ANIMALS,XXZOOXX,5555555.0,10,3,7,f,f,1,0,0,0,0,0,6,6,6,,,,,,,,,6,0,6,0,,,,,,,,,,,,,,,,,,,,,,,,,,,,VRBYNGK,62.515631100000064,62.54888010000013,62.54888010000013,62.59898450000037,,,,,,,,,,,,,697190,1,60,en,2024-11-26_15h59.54.693,AB,2023.1.3,59.90901019532984,
,,,,,,,,,,,,,,,,,,,,,,,,,,,,,,,,,,,,,,,,,,,,,,,,,,,,,,,,,,,,,,,None,0,62.59898450000037,63.58226570000079,63.58226570000079,63.59890660000019,65.58248790000016,65.58248790000016,65.58248790000016,,,,,,,,,,,,
