task1,task2,thisN,thisTrialN,thisRepN,T0,T2,T1,lagT0,lagT1,lagT2,responseT1,responseT2,related,key_resp.keys,key_resp.rt,key_resp.duration,key_resp_T1.keys,key_resp_T1.corr,key_resp_T2.keys,key_resp_T2.corr,key_resp_T2.rt,key_resp_T2.duration,press_to_continue.keys,key_resp_T1.rt,key_resp_T1.duration,block.thisRepN,block.thisTrialN,block.thisN,block.thisIndex,trial.thisRepN,trial.thisTrialN,trial.thisN,trial.thisIndex,trials_T0_context.thisRepN,trials_T0_context.thisTrialN,trials_T0_context.thisN,trials_T0_context.thisIndex,trials_T1.thisRepN,trials_T1.thisTrialN,trials_T1.thisN,trials_T1.thisIndex,trials_T2.thisRepN,trials_T2.thisTrialN,trials_T2.thisN,trials_T2.thisIndex,thisRow.t,notes,set_block.started,set_block.stopped,instructions.started,text_instructions.started,key_resp.started,instructions.stopped,block.key_resp.keys,block.key_resp.rt,block.key_resp.duration,set_trial.started,set_trial.stopped,T0_context.started,context_word.started,blankContext.started,context_word.stopped,blankContext.stopped,T0_context.stopped,distractor_T0,distractors_T0.started,text_distr_T0.started,text_distr_T0.stopped,text_blank_distractors_T0.started,text_blank_distractors_T0.stopped,distractors_T0.stopped,T1_number.started,text_T1.started,text_T1.stopped,text_blank_number_T1.started,text_blank_number_T1.stopped,T1_number.stopped,distractor_T1,distractors_T1.started,distractors_T1.stopped,T2_probe.started,text_T2.started,text_T2.stopped,text_blank_T2_probe.started,text_blank_T2_probe.stopped,T2_probe.stopped,distractor_T2,distractors_T2.started,text_distr_T2.started,text_distr_T2.stopped,text_blank_distractors_T2.started,text_blank_distractors_T2.stopped,distractors_T2.stopped,blank_1s.started,text_blank1s.started,text_blank1s.stopped,blank_1s.stopped,Ask_T1.started,Ask_T1.stopped,trial.key_resp_T1.keys,trial.key_resp_T1.corr,blank_T1T2.started,blank_T1T2.stopped,Ask_T2.started,text_T2ask.started,key_resp_T2.started,Ask_T2.stopped,trial.key_resp_T2.keys,trial.key_resp_T2.corr,trial.key_resp_T2.rt,trial.key_resp_T2.duration,blank_2s.started,text_blank2s.started,text_blank2s.stopped,blank_2s.stopped,text_distr_T1.started,text_distr_T1.stopped,text_blank_distractors_T1.started,text_blank_distractors_T1.stopped,rest.started,text_rest.started,press_to_continue.started,rest.stopped,block.press_to_continue.keys,text_T2ask.stopped,key_resp_T2.stopped,text_rest.stopped,press_to_continue.stopped,text_T1ask.started,key_resp_T1.started,text_T1ask.stopped,key_resp_T1.stopped,text_blankT1T2.started,text_blankT1T2.stopped,trial.key_resp_T1.rt,trial.key_resp_T1.duration,end.started,text_thanks.started,end.stopped,participant,order [1: single-dual or 2: dual-single],refresh rate (Hz),port address,language,date,expName,psychopyVersion,frameRate,expStart,
single,dual,0,0,0,NUMBERS,XXBUYXX,2222222.0,7,1,12,j,j,unrelated,space,1.1656102000270039,None,,,,,,,,,,0,0,0,0,0,0,0,0,0,0,0,0,,,,,,,,,3.4085824999492615,,0.01837449986487627,0.01867539994418621,0.05977179994806647,0.0745843998156488,0.0745843998156488,1.2477587999310344,space,1.1656102000270039,None,1.4011022998020053,1.4015539998654276,1.4068477000109851,1.4246158997993916,2.408483099890873,2.425433099968359,3.4085824999492615,3.3948026997968554,ZMXWNPK,3.399866399820894,3.4085824999492615,3.4418145997915417,3.4418145997915417,3.491947599919513,3.4780633999034762,,,,,,,,,,,,,,,,,,,,,,,,,,,,,,,,,,,,,,,,,,,,,,,,,,,,,,,,,,,,,,,,,,,,,983509,1,60,0xC000,en,2025-03-19_20h53.13.046,AB,2024.2.4,59.87876942651462,2025-03-19 20h53.21.354040 +0500,
single,dual,1,0,1,NUMBERS,XXBUYXX,2222222.0,7,1,12,j,j,unrelated,space,1.1656102000270039,None,,,,,,,,,,0,0,0,0,0,0,0,0,1,0,1,0,,,,,,,,,3.491947599919513,,,,,,,,,,,,,,,,,,,CYTGLKM,3.482317299814895,3.491947599919513,3.5254573000129312,3.5254573000129312,3.5753120998851955,3.5611837999895215,,,,,,,,,,,,,,,,,,,,,,,,,,,,,,,,,,,,,,,,,,,,,,,,,,,,,,,,,,,,,,,,,,,,,983509,1,60,0xC000,en,2025-03-19_20h53.13.046,AB,2024.2.4,59.87876942651462,2025-03-19 20h53.21.354040 +0500,
single,dual,2,0,2,NUMBERS,XXBUYXX,2222222.0,7,1,12,j,j,unrelated,space,1.1656102000270039,None,,,,,,,,,,0,0,0,0,0,0,0,0,2,0,2,0,,,,,,,,,3.5753120998851955,,,,,,,,,,,,,,,,,,,HWJRTFS,3.564501899993047,3.5753120998851955,3.6087485998868942,3.6087485998868942,3.658541699871421,3.6450286000035703,,,,,,,,,,,,,,,,,,,,,,,,,,,,,,,,,,,,,,,,,,,,,,,,,,,,,,,,,,,,,,,,,,,,,983509,1,60,0xC000,en,2025-03-19_20h53.13.046,AB,2024.2.4,59.87876942651462,2025-03-19 20h53.21.354040 +0500,
single,dual,3,0,3,NUMBERS,XXBUYXX,2222222.0,7,1,12,j,j,unrelated,space,1.1656102000270039,None,,,,,,,,,,0,0,0,0,0,0,0,0,3,0,3,0,,,,,,,,,3.658541699871421,,,,,,,,,,,,,,,,,,,SDRZTHB,3.6476607997901738,3.658541699871421,3.6921075999271125,3.6921075999271125,3.741718699922785,3.7281051999889314,,,,,,,,,,,,,,,,,,,,,,,,,,,,,,,,,,,,,,,,,,,,,,,,,,,,,,,,,,,,,,,,,,,,,983509,1,60,0xC000,en,2025-03-19_20h53.13.046,AB,2024.2.4,59.87876942651462,2025-03-19 20h53.21.354040 +0500,
single,dual,4,0,4,NUMBERS,XXBUYXX,2222222.0,7,1,12,j,j,unrelated,space,1.1656102000270039,None,,,,,,,,,,0,0,0,0,0,0,0,0,4,0,4,0,,,,,,,,,3.741718699922785,,,,,,,,,,,,,,,,,,,VHCZPMK,3.73049380001612,3.741718699922785,3.775383099913597,3.775383099913597,3.8252210998907685,3.811496499925852,,,,,,,,,,,,,,,,,,,,,,,,,,,,,,,,,,,,,,,,,,,,,,,,,,,,,,,,,,,,,,,,,,,,,983509,1,60,0xC000,en,2025-03-19_20h53.13.046,AB,2024.2.4,59.87876942651462,2025-03-19 20h53.21.354040 +0500,
single,dual,5,0,5,NUMBERS,XXBUYXX,2222222.0,7,1,12,j,j,unrelated,space,1.1656102000270039,None,,,,,,,,,,0,0,0,0,0,0,0,0,5,0,5,0,,,,,,,,,3.8252210998907685,,,,,,,,,,,,,,,,,,,QVMPDCK,3.814280399819836,3.8252210998907685,3.8587481998838484,3.8587481998838484,3.9085015999153256,3.894810999976471,,,,,,,,,,,,,,,,,,,,,,,,,,,,,,,,,,,,,,,,,,,,,,,,,,,,,,,,,,,,,,,,,,,,,983509,1,60,0xC000,en,2025-03-19_20h53.13.046,AB,2024.2.4,59.87876942651462,2025-03-19 20h53.21.354040 +0500,
single,dual,0,0,0,NUMBERS,XXBUYXX,2222222.0,7,1,12,j,j,unrelated,space,1.1656102000270039,None,,,,,,,,,,0,0,0,0,0,0,0,0,,,,,0,0,0,0,,,,,3.9921240999829024,,,,,,,,,,,,,,,,,,,,,,,,,,3.8997603999450803,3.9085015999153256,3.942112199962139,3.942112199962139,3.9921240999829024,3.9774809000082314,,3.979171199956909,3.9792037999723107,,,,,,,,,,,,,,,,,,,,,,,,,,,,,,,,,,,,,,,,,,,,,,,,,,,,,,,,,,,,983509,1,60,0xC000,en,2025-03-19_20h53.13.046,AB,2024.2.4,59.87876942651462,2025-03-19 20h53.21.354040 +0500,
single,dual,0,0,0,NUMBERS,XXBUYXX,2222222.0,7,1,12,j,j,unrelated,space,1.1656102000270039,None,,,,,,,,,,0,0,0,0,0,0,0,0,,,,,,,,,0,0,0,0,4.075272499816492,,,,,,,,,,,,,,,,,,,,,,,,,,,,,,,,,,,3.9823175999335945,3.9921240999829024,4.025402799947187,4.025402799947187,4.075272499816492,4.061478199902922,RYXKGWP,4.063269499922171,4.075272499816492,4.108728099847212,4.108728099847212,4.158778399927542,4.144719099858776,,,,,,,,,,,,,,,,,,,,,,,,,,,,,,,,,,,,,,,,,,,,,,,983509,1,60,0xC000,en,2025-03-19_20h53.13.046,AB,2024.2.4,59.87876942651462,2025-03-19 20h53.21.354040 +0500,
single,dual,1,0,1,NUMBERS,XXBUYXX,2222222.0,7,1,12,j,j,unrelated,space,1.1656102000270039,None,,,,,,,,,,0,0,0,0,0,0,0,0,,,,,,,,,1,0,1,0,4.158778399927542,,,,,,,,,,,,,,,,,,,,,,,,,,,,,,,,,,,,,,,,,HDTYCSW,4.146289599826559,4.158778399927542,4.191954499809071,4.191954499809071,4.241814299952239,4.228089799871668,,,,,,,,,,,,,,,,,,,,,,,,,,,,,,,,,,,,,,,,,,,,,,,983509,1,60,0xC000,en,2025-03-19_20h53.13.046,AB,2024.2.4,59.87876942651462,2025-03-19 20h53.21.354040 +0500,
single,dual,2,0,2,NUMBERS,XXBUYXX,2222222.0,7,1,12,j,j,unrelated,space,1.1656102000270039,None,,,,,,,,,,0,0,0,0,0,0,0,0,,,,,,,,,2,0,2,0,4.241814299952239,,,,,,,,,,,,,,,,,,,,,,,,,,,,,,,,,,,,,,,,,KPTLFCD,4.229624699801207,4.241814299952239,4.274952000007033,4.274952000007033,4.325022999895737,4.3111619998235255,,,,,,,,,,,,,,,,,,,,,,,,,,,,,,,,,,,,,,,,,,,,,,,983509,1,60,0xC000,en,2025-03-19_20h53.13.046,AB,2024.2.4,59.87876942651462,2025-03-19 20h53.21.354040 +0500,
single,dual,3,0,3,NUMBERS,XXBUYXX,2222222.0,7,1,12,j,j,unrelated,space,1.1656102000270039,None,,,,,,,,,,0,0,0,0,0,0,0,0,,,,,,,,,3,0,3,0,4.325022999895737,,,,,,,,,,,,,,,,,,,,,,,,,,,,,,,,,,,,,,,,,CQBSYLX,4.312690999824554,4.325022999895737,4.358277199789882,4.358277199789882,4.409587599802762,4.394321999978274,,,,,,,,,,,,,,,,,,,,,,,,,,,,,,,,,,,,,,,,,,,,,,,983509,1,60,0xC000,en,2025-03-19_20h53.13.046,AB,2024.2.4,59.87876942651462,2025-03-19 20h53.21.354040 +0500,
single,dual,4,0,4,NUMBERS,XXBUYXX,2222222.0,7,1,12,j,j,unrelated,space,1.1656102000270039,None,,,,,,,,,,0,0,0,0,0,0,0,0,,,,,,,,,4,0,4,0,4.409587599802762,,,,,,,,,,,,,,,,,,,,,,,,,,,,,,,,,,,,,,,,,YMQPFTK,4.396166799822822,4.409587599802762,4.4415662998799235,4.4415662998799235,4.4918814999982715,4.477409099927172,,,,,,,,,,,,,,,,,,,,,,,,,,,,,,,,,,,,,,,,,,,,,,,983509,1,60,0xC000,en,2025-03-19_20h53.13.046,AB,2024.2.4,59.87876942651462,2025-03-19 20h53.21.354040 +0500,
single,dual,5,0,5,NUMBERS,XXBUYXX,2222222.0,7,1,12,j,j,unrelated,space,1.1656102000270039,None,,,,,,,,,,0,0,0,0,0,0,0,0,,,,,,,,,5,0,5,0,4.4918814999982715,,,,,,,,,,,,,,,,,,,,,,,,,,,,,,,,,,,,,,,,,JFKWLNQ,4.478927099844441,4.4918814999982715,4.525101599982008,4.525101599982008,4.575445899972692,4.56140449992381,,,,,,,,,,,,,,,,,,,,,,,,,,,,,,,,,,,,,,,,,,,,,,,983509,1,60,0xC000,en,2025-03-19_20h53.13.046,AB,2024.2.4,59.87876942651462,2025-03-19 20h53.21.354040 +0500,
single,dual,6,0,6,NUMBERS,XXBUYXX,2222222.0,7,1,12,j,j,unrelated,space,1.1656102000270039,None,,,,,,,,,,0,0,0,0,0,0,0,0,,,,,,,,,6,0,6,0,4.575445899972692,,,,,,,,,,,,,,,,,,,,,,,,,,,,,,,,,,,,,,,,,NTWJPRB,4.562948999926448,4.575445899972692,4.608815199928358,4.608815199928358,4.658767899964005,4.64448649995029,,,,,,,,,,,,,,,,,,,,,,,,,,,,,,,,,,,,,,,,,,,,,,,983509,1,60,0xC000,en,2025-03-19_20h53.13.046,AB,2024.2.4,59.87876942651462,2025-03-19 20h53.21.354040 +0500,
single,dual,7,0,7,NUMBERS,XXBUYXX,2222222.0,7,1,12,j,j,unrelated,space,1.1656102000270039,None,,,,,,,,,,0,0,0,0,0,0,0,0,,,,,,,,,7,0,7,0,4.658767899964005,,,,,,,,,,,,,,,,,,,,,,,,,,,,,,,,,,,,,,,,,LBCHXPW,4.64601599983871,4.658767899964005,4.692067299969494,4.692067299969494,4.741884500021115,4.728185799904168,,,,,,,,,,,,,,,,,,,,,,,,,,,,,,,,,,,,,,,,,,,,,,,983509,1,60,0xC000,en,2025-03-19_20h53.13.046,AB,2024.2.4,59.87876942651462,2025-03-19 20h53.21.354040 +0500,
single,dual,8,0,8,NUMBERS,XXBUYXX,2222222.0,7,1,12,j,j,unrelated,space,1.1656102000270039,None,,,,,,,,,,0,0,0,0,0,0,0,0,,,,,,,,,8,0,8,0,4.741884500021115,,,,,,,,,,,,,,,,,,,,,,,,,,,,,,,,,,,,,,,,,TQGDYPN,4.729715999914333,4.741884500021115,4.775463699828833,4.775463699828833,4.825402799993753,4.8114143998827785,,,,,,,,,,,,,,,,,,,,,,,,,,,,,,,,,,,,,,,,,,,,,,,983509,1,60,0xC000,en,2025-03-19_20h53.13.046,AB,2024.2.4,59.87876942651462,2025-03-19 20h53.21.354040 +0500,
single,dual,9,0,9,NUMBERS,XXBUYXX,2222222.0,7,1,12,j,j,unrelated,space,1.1656102000270039,None,,,,,,,,,,0,0,0,0,0,0,0,0,,,,,,,,,9,0,9,0,4.825402799993753,,,,,,,,,,,,,,,,,,,,,,,,,,,,,,,,,,,,,,,,,SWTBNLP,4.813116099918261,4.825402799993753,4.858748099999502,4.858748099999502,4.908745299791917,4.894854799844325,,,,,,,,,,,,,,,,,,,,,,,,,,,,,,,,,,,,,,,,,,,,,,,983509,1,60,0xC000,en,2025-03-19_20h53.13.046,AB,2024.2.4,59.87876942651462,2025-03-19 20h53.21.354040 +0500,
single,dual,10,0,10,NUMBERS,XXBUYXX,2222222.0,7,1,12,j,j,unrelated,space,1.1656102000270039,None,,,,,,,,,,0,0,0,0,0,0,0,0,,,,,,,,,10,0,10,0,4.908745299791917,,,,,,,,,,,,,,,,,,,,,,,,,,,,,,,,,,,,,,,,,VBJQSDG,4.896396399941295,4.908745299791917,4.942097099963576,4.942097099963576,4.991950799943879,4.978198099881411,,,,,,,,,,,,,,,,,,,,,,,,,,,,,,,,,,,,,,,,,,,,,,,983509,1,60,0xC000,en,2025-03-19_20h53.13.046,AB,2024.2.4,59.87876942651462,2025-03-19 20h53.21.354040 +0500,
single,dual,11,0,11,NUMBERS,XXBUYXX,2222222.0,7,1,12,j,j,unrelated,space,1.1656102000270039,None,,,,,,,,,,0,0,0,0,0,0,0,0,,,,,,,,,11,0,11,0,4.991950799943879,,,,,,,,,,,,,,,,,,,,,,,,,,,,,,,,,,,,,,,,,ZJPDKCB,4.979722999967635,4.991950799943879,5.025431199930608,5.025431199930608,5.075438699917868,5.061424599960446,,,,,,,,,,,,,,,,,,,,,,,,,,,,,,,,,,,,,,,,,,,,,,,983509,1,60,0xC000,en,2025-03-19_20h53.13.046,AB,2024.2.4,59.87876942651462,2025-03-19 20h53.21.354040 +0500,
single,dual,0,0,0,NUMBERS,XXBUYXX,2222222.0,7,1,12,j,j,unrelated,space,1.1656102000270039,None,None,0,j,1,0.4366464999038726,None,,,,0,0,0,0,0,0,0,0,,,,,,,,,,,,,,,,,,,,,,,,,,,,,,,,,,,,,,,,,,,,,,,,,,,,,,,,,,,,,5.063663699897006,5.075438699917868,6.075285299913958,6.061522000003606,6.061549999983981,6.061574999941513,None,0,6.061613299883902,6.061631599906832,6.0616466999053955,6.075285299913958,6.075285299913958,6.545009099878371,j,1,0.4366464999038726,None,6.5450977999717,6.5587902998086065,8.558688499964774,8.544860599795356,,,,,,,,,,,,,,,,,,,,,,,,,983509,1,60,0xC000,en,2025-03-19_20h53.13.046,AB,2024.2.4,59.87876942651462,2025-03-19 20h53.21.354040 +0500,
single,dual,0,0,0,BEST,XSPOONX,8888888.0,10,1,9,j,j,unrelated,space,1.1656102000270039,None,,,,,,,,,,0,0,0,0,0,1,1,1,0,0,0,0,,,,,,,,,10.559757499955595,,,,,,,,,,,8.545179300010204,8.545478999847546,8.547175099840388,8.558688499964774,9.558553899871185,9.558553899871185,,10.548906799871475,LFGHMNK,10.553274299949408,10.559757499955595,10.592304399935529,10.592304399935529,10.642222299939021,10.629931499948725,,,,,,,,,,,,,,,,,,,,,,,,,,,,,,,,,,,,,,,,,,,,,,,,,,,,,,,,,,,,,,,,,,,,,983509,1,60,0xC000,en,2025-03-19_20h53.13.046,AB,2024.2.4,59.87876942651462,2025-03-19 20h53.21.354040 +0500,
single,dual,1,0,1,BEST,XSPOONX,8888888.0,10,1,9,j,j,unrelated,space,1.1656102000270039,None,,,,,,,,,,0,0,0,0,0,1,1,1,1,0,1,0,,,,,,,,,10.642222299939021,,,,,,,,,,,,,,,,,,,SGWLZXR,10.632486999966204,10.642222299939021,10.675507699837908,10.675507699837908,10.72556409984827,10.711488300003111,,,,,,,,,,,,,,,,,,,,,,,,,,,,,,,,,,,,,,,,,,,,,,,,,,,,,,,,,,,,,,,,,,,,,983509,1,60,0xC000,en,2025-03-19_20h53.13.046,AB,2024.2.4,59.87876942651462,2025-03-19 20h53.21.354040 +0500,
single,dual,2,0,2,BEST,XSPOONX,8888888.0,10,1,9,j,j,unrelated,space,1.1656102000270039,None,,,,,,,,,,0,0,0,0,0,1,1,1,2,0,2,0,,,,,,,,,10.72556409984827,,,,,,,,,,,,,,,,,,,BKYHRMT,10.713180299848318,10.72556409984827,10.758690499933437,10.758690499933437,10.808621299918741,10.794861499918625,,,,,,,,,,,,,,,,,,,,,,,,,,,,,,,,,,,,,,,,,,,,,,,,,,,,,,,,,,,,,,,,,,,,,983509,1,60,0xC000,en,2025-03-19_20h53.13.046,AB,2024.2.4,59.87876942651462,2025-03-19 20h53.21.354040 +0500,
single,dual,3,0,3,BEST,XSPOONX,8888888.0,10,1,9,j,j,unrelated,space,1.1656102000270039,None,,,,,,,,,,0,0,0,0,0,1,1,1,3,0,3,0,,,,,,,,,10.808621299918741,,,,,,,,,,,,,,,,,,,KQJCYVB,10.796408899826929,10.808621299918741,10.84232689999044,10.84232689999044,10.89232339989394,10.878020599950105,,,,,,,,,,,,,,,,,,,,,,,,,,,,,,,,,,,,,,,,,,,,,,,,,,,,,,,,,,,,,,,,,,,,,983509,1,60,0xC000,en,2025-03-19_20h53.13.046,AB,2024.2.4,59.87876942651462,2025-03-19 20h53.21.354040 +0500,
single,dual,4,0,4,BEST,XSPOONX,8888888.0,10,1,9,j,j,unrelated,space,1.1656102000270039,None,,,,,,,,,,0,0,0,0,0,1,1,1,4,0,4,0,,,,,,,,,10.89232339989394,,,,,,,,,,,,,,,,,,,SLWVBQJ,10.879544399911538,10.89232339989394,10.925253799883649,10.925253799883649,10.975529899820685,10.961647999938577,,,,,,,,,,,,,,,,,,,,,,,,,,,,,,,,,,,,,,,,,,,,,,,,,,,,,,,,,,,,,,,,,,,,,983509,1,60,0xC000,en,2025-03-19_20h53.13.046,AB,2024.2.4,59.87876942651462,2025-03-19 20h53.21.354040 +0500,
single,dual,5,0,5,BEST,XSPOONX,8888888.0,10,1,9,j,j,unrelated,space,1.1656102000270039,None,,,,,,,,,,0,0,0,0,0,1,1,1,5,0,5,0,,,,,,,,,10.975529899820685,,,,,,,,,,,,,,,,,,,NXZLFHW,10.963188799796626,10.975529899820685,11.009002599865198,11.009002599865198,11.05888249981217,11.044638299848884,,,,,,,,,,,,,,,,,,,,,,,,,,,,,,,,,,,,,,,,,,,,,,,,,,,,,,,,,,,,,,,,,,,,,983509,1,60,0xC000,en,2025-03-19_20h53.13.046,AB,2024.2.4,59.87876942651462,2025-03-19 20h53.21.354040 +0500,
single,dual,6,0,6,BEST,XSPOONX,8888888.0,10,1,9,j,j,unrelated,space,1.1656102000270039,None,,,,,,,,,,0,0,0,0,0,1,1,1,6,0,6,0,,,,,,,,,11.05888249981217,,,,,,,,,,,,,,,,,,,CLRTNPK,11.04616679996252,11.05888249981217,11.092178199905902,11.092178199905902,11.142223099945113,11.128154599806294,,,,,,,,,,,,,,,,,,,,,,,,,,,,,,,,,,,,,,,,,,,,,,,,,,,,,,,,,,,,,,,,,,,,,983509,1,60,0xC000,en,2025-03-19_20h53.13.046,AB,2024.2.4,59.87876942651462,2025-03-19 20h53.21.354040 +0500,
single,dual,7,0,7,BEST,XSPOONX,8888888.0,10,1,9,j,j,unrelated,space,1.1656102000270039,None,,,,,,,,,,0,0,0,0,0,1,1,1,7,0,7,0,,,,,,,,,11.142223099945113,,,,,,,,,,,,,,,,,,,ZSGYFHP,11.129883299814537,11.142223099945113,11.175638999789953,11.175638999789953,11.225547699956223,11.211267499951646,,,,,,,,,,,,,,,,,,,,,,,,,,,,,,,,,,,,,,,,,,,,,,,,,,,,,,,,,,,,,,,,,,,,,983509,1,60,0xC000,en,2025-03-19_20h53.13.046,AB,2024.2.4,59.87876942651462,2025-03-19 20h53.21.354040 +0500,
single,dual,8,0,8,BEST,XSPOONX,8888888.0,10,1,9,j,j,unrelated,space,1.1656102000270039,None,,,,,,,,,,0,0,0,0,0,1,1,1,8,0,8,0,,,,,,,,,11.225547699956223,,,,,,,,,,,,,,,,,,,THQWXGY,11.212833799887449,11.225547699956223,11.258869499899447,11.258869499899447,11.308714999817312,11.294996500015259,,,,,,,,,,,,,,,,,,,,,,,,,,,,,,,,,,,,,,,,,,,,,,,,,,,,,,,,,,,,,,,,,,,,,983509,1,60,0xC000,en,2025-03-19_20h53.13.046,AB,2024.2.4,59.87876942651462,2025-03-19 20h53.21.354040 +0500,
single,dual,0,0,0,BEST,XSPOONX,8888888.0,10,1,9,j,j,unrelated,space,1.1656102000270039,None,,,,,,,,,,0,0,0,0,0,1,1,1,,,,,0,0,0,0,,,,,11.391984999878332,,,,,,,,,,,,,,,,,,,,,,,,,,11.299953199923038,11.308714999817312,11.342230799840763,11.342230799840763,11.391984999878332,11.378325199941173,,11.380144199822098,11.380171099910513,,,,,,,,,,,,,,,,,,,,,,,,,,,,,,,,,,,,,,,,,,,,,,,,,,,,,,,,,,,,983509,1,60,0xC000,en,2025-03-19_20h53.13.046,AB,2024.2.4,59.87876942651462,2025-03-19 20h53.21.354040 +0500,
single,dual,0,0,0,BEST,XSPOONX,8888888.0,10,1,9,j,j,unrelated,space,1.1656102000270039,None,,,,,,,,,,0,0,0,0,0,1,1,1,,,,,,,,,0,0,0,0,11.47555339988321,,,,,,,,,,,,,,,,,,,,,,,,,,,,,,,,,,,11.384246999863535,11.391984999878332,11.425568499835208,11.425568499835208,11.47555339988321,11.461568499915302,VDLWXGM,11.463221999816597,11.47555339988321,11.508796299807727,11.508796299807727,11.558663399890065,11.544898599851876,,,,,,,,,,,,,,,,,,,,,,,,,,,,,,,,,,,,,,,,,,,,,,,983509,1,60,0xC000,en,2025-03-19_20h53.13.046,AB,2024.2.4,59.87876942651462,2025-03-19 20h53.21.354040 +0500,
single,dual,1,0,1,BEST,XSPOONX,8888888.0,10,1,9,j,j,unrelated,space,1.1656102000270039,None,,,,,,,,,,0,0,0,0,0,1,1,1,,,,,,,,,1,0,1,0,11.558663399890065,,,,,,,,,,,,,,,,,,,,,,,,,,,,,,,,,,,,,,,,,FLYMPHQ,11.546439899830148,11.558663399890065,11.592240699799731,11.592240699799731,11.642346099950373,11.628228500019759,,,,,,,,,,,,,,,,,,,,,,,,,,,,,,,,,,,,,,,,,,,,,,,983509,1,60,0xC000,en,2025-03-19_20h53.13.046,AB,2024.2.4,59.87876942651462,2025-03-19 20h53.21.354040 +0500,
single,dual,2,0,2,BEST,XSPOONX,8888888.0,10,1,9,j,j,unrelated,space,1.1656102000270039,None,,,,,,,,,,0,0,0,0,0,1,1,1,,,,,,,,,2,0,2,0,11.642346099950373,,,,,,,,,,,,,,,,,,,,,,,,,,,,,,,,,,,,,,,,,SKVPMGD,11.629966199863702,11.642346099950373,11.675350699806586,11.675350699806586,11.725524399895221,11.71147819980979,,,,,,,,,,,,,,,,,,,,,,,,,,,,,,,,,,,,,,,,,,,,,,,983509,1,60,0xC000,en,2025-03-19_20h53.13.046,AB,2024.2.4,59.87876942651462,2025-03-19 20h53.21.354040 +0500,
single,dual,3,0,3,BEST,XSPOONX,8888888.0,10,1,9,j,j,unrelated,space,1.1656102000270039,None,,,,,,,,,,0,0,0,0,0,1,1,1,,,,,,,,,3,0,3,0,11.725524399895221,,,,,,,,,,,,,,,,,,,,,,,,,,,,,,,,,,,,,,,,,CYMNKVW,11.71300769993104,11.725524399895221,11.75894059985876,11.75894059985876,11.809009099844843,11.794839299982414,,,,,,,,,,,,,,,,,,,,,,,,,,,,,,,,,,,,,,,,,,,,,,,983509,1,60,0xC000,en,2025-03-19_20h53.13.046,AB,2024.2.4,59.87876942651462,2025-03-19 20h53.21.354040 +0500,
single,dual,4,0,4,BEST,XSPOONX,8888888.0,10,1,9,j,j,unrelated,space,1.1656102000270039,None,,,,,,,,,,0,0,0,0,0,1,1,1,,,,,,,,,4,0,4,0,11.809009099844843,,,,,,,,,,,,,,,,,,,,,,,,,,,,,,,,,,,,,,,,,LVMQKYJ,11.79637399991043,11.809009099844843,11.842071899911389,11.842071899911389,11.891953199869022,11.87819099985063,,,,,,,,,,,,,,,,,,,,,,,,,,,,,,,,,,,,,,,,,,,,,,,983509,1,60,0xC000,en,2025-03-19_20h53.13.046,AB,2024.2.4,59.87876942651462,2025-03-19 20h53.21.354040 +0500,
single,dual,5,0,5,BEST,XSPOONX,8888888.0,10,1,9,j,j,unrelated,space,1.1656102000270039,None,,,,,,,,,,0,0,0,0,0,1,1,1,,,,,,,,,5,0,5,0,11.891953199869022,,,,,,,,,,,,,,,,,,,,,,,,,,,,,,,,,,,,,,,,,KRVCZPB,11.879729399923235,11.891953199869022,11.92560279997997,11.92560279997997,11.975638099946082,11.961491799913347,,,,,,,,,,,,,,,,,,,,,,,,,,,,,,,,,,,,,,,,,,,,,,,983509,1,60,0xC000,en,2025-03-19_20h53.13.046,AB,2024.2.4,59.87876942651462,2025-03-19 20h53.21.354040 +0500,
single,dual,6,0,6,BEST,XSPOONX,8888888.0,10,1,9,j,j,unrelated,space,1.1656102000270039,None,,,,,,,,,,0,0,0,0,0,1,1,1,,,,,,,,,6,0,6,0,11.975638099946082,,,,,,,,,,,,,,,,,,,,,,,,,,,,,,,,,,,,,,,,,LBGHNFR,11.963014399865642,11.975638099946082,12.008613399928436,12.008613399928436,12.05887690000236,12.044948699884117,,,,,,,,,,,,,,,,,,,,,,,,,,,,,,,,,,,,,,,,,,,,,,,983509,1,60,0xC000,en,2025-03-19_20h53.13.046,AB,2024.2.4,59.87876942651462,2025-03-19 20h53.21.354040 +0500,
single,dual,7,0,7,BEST,XSPOONX,8888888.0,10,1,9,j,j,unrelated,space,1.1656102000270039,None,,,,,,,,,,0,0,0,0,0,1,1,1,,,,,,,,,7,0,7,0,12.05887690000236,,,,,,,,,,,,,,,,,,,,,,,,,,,,,,,,,,,,,,,,,MHSGJKY,12.04669909994118,12.05887690000236,12.092318699928,12.092318699928,12.14225609996356,12.127956399926916,,,,,,,,,,,,,,,,,,,,,,,,,,,,,,,,,,,,,,,,,,,,,,,983509,1,60,0xC000,en,2025-03-19_20h53.13.046,AB,2024.2.4,59.87876942651462,2025-03-19 20h53.21.354040 +0500,
single,dual,8,0,8,BEST,XSPOONX,8888888.0,10,1,9,j,j,unrelated,space,1.1656102000270039,None,,,,,,,,,,0,0,0,0,0,1,1,1,,,,,,,,,8,0,8,0,12.14225609996356,,,,,,,,,,,,,,,,,,,,,,,,,,,,,,,,,,,,,,,,,HYNSQBZ,12.12949589989148,12.14225609996356,12.175502499798313,12.175502499798313,12.225575699936599,12.21165469987318,,,,,,,,,,,,,,,,,,,,,,,,,,,,,,,,,,,,,,,,,,,,,,,983509,1,60,0xC000,en,2025-03-19_20h53.13.046,AB,2024.2.4,59.87876942651462,2025-03-19 20h53.21.354040 +0500,
single,dual,1,1,0,BEST,XSPOONX,8888888.0,10,1,9,j,j,unrelated,space,1.1656102000270039,None,None,0,j,1,0.31855649990029633,None,,,,0,0,0,0,0,1,1,1,,,,,,,,,,,,,,,,,,,,,,,,,,,,,,,,,,,,,,,,,,,,,,,,,,,,,,,,,,,,,12.213778499979526,12.225575699936599,13.225584300002083,13.21127299987711,13.211300699971616,13.211323599796742,None,0,13.211372199933976,13.211389599833637,13.2114049999509,13.225584300002083,13.225584300002083,13.561844399897382,j,1,0.31855649990029633,None,13.561934999888763,13.575301199918613,15.575337799964473,15.561693799914792,,,,,,,,,,,,,,,,,,,,,,,,,983509,1,60,0xC000,en,2025-03-19_20h53.13.046,AB,2024.2.4,59.87876942651462,2025-03-19 20h53.21.354040 +0500,
single,dual,0,0,0,NINE,XXTENXX,9999999.0,10,3,7,f,f,related,space,1.1656102000270039,None,,,,,,,,,,0,0,0,0,0,2,2,2,0,0,0,0,,,,,,,,,17.57565679983236,,,,,,,,,,,15.562009499873966,15.56226299982518,15.564440099988133,15.575337799964473,16.575371799990535,16.575371799990535,17.57565679983236,17.56172509980388,PNMXDWC,17.563803599914536,17.57565679983236,17.608905899804085,17.608905899804085,17.658929299796,17.645299499854445,,,,,,,,,,,,,,,,,,,,,,,,,,,,,,,,,,,,,,,,,,,,,,,,,,,,,,,,,,,,,,,,,,,,,983509,1,60,0xC000,en,2025-03-19_20h53.13.046,AB,2024.2.4,59.87876942651462,2025-03-19 20h53.21.354040 +0500,
single,dual,1,0,1,NINE,XXTENXX,9999999.0,10,3,7,f,f,related,space,1.1656102000270039,None,,,,,,,,,,0,0,0,0,0,2,2,2,1,0,1,0,,,,,,,,,17.658929299796,,,,,,,,,,,,,,,,,,,PVNJFGH,17.647094799904153,17.658929299796,17.692340899957344,17.692340899957344,17.74198789987713,17.72853419999592,,,,,,,,,,,,,,,,,,,,,,,,,,,,,,,,,,,,,,,,,,,,,,,,,,,,,,,,,,,,,,,,,,,,,983509,1,60,0xC000,en,2025-03-19_20h53.13.046,AB,2024.2.4,59.87876942651462,2025-03-19 20h53.21.354040 +0500,
single,dual,2,0,2,NINE,XXTENXX,9999999.0,10,3,7,f,f,related,space,1.1656102000270039,None,,,,,,,,,,0,0,0,0,0,2,2,2,2,0,2,0,,,,,,,,,17.74198789987713,,,,,,,,,,,,,,,,,,,KFWVBRM,17.730326199904084,17.74198789987713,17.775633099954575,17.775633099954575,17.82565169990994,17.812049999833107,,,,,,,,,,,,,,,,,,,,,,,,,,,,,,,,,,,,,,,,,,,,,,,,,,,,,,,,,,,,,,,,,,,,,983509,1,60,0xC000,en,2025-03-19_20h53.13.046,AB,2024.2.4,59.87876942651462,2025-03-19 20h53.21.354040 +0500,
single,dual,3,0,3,NINE,XXTENXX,9999999.0,10,3,7,f,f,related,space,1.1656102000270039,None,,,,,,,,,,0,0,0,0,0,2,2,2,3,0,3,0,,,,,,,,,17.82565169990994,,,,,,,,,,,,,,,,,,,RVQLMJK,17.813832700019702,17.82565169990994,17.85898739984259,17.85898739984259,17.909040699945763,17.894914699951187,,,,,,,,,,,,,,,,,,,,,,,,,,,,,,,,,,,,,,,,,,,,,,,,,,,,,,,,,,,,,,,,,,,,,983509,1,60,0xC000,en,2025-03-19_20h53.13.046,AB,2024.2.4,59.87876942651462,2025-03-19 20h53.21.354040 +0500,
single,dual,4,0,4,NINE,XXTENXX,9999999.0,10,3,7,f,f,related,space,1.1656102000270039,None,,,,,,,,,,0,0,0,0,0,2,2,2,4,0,4,0,,,,,,,,,17.909040699945763,,,,,,,,,,,,,,,,,,,DZKGXWJ,17.896461099851876,17.909040699945763,17.9421388998162,17.9421388998162,17.992074699839577,17.97829040000215,,,,,,,,,,,,,,,,,,,,,,,,,,,,,,,,,,,,,,,,,,,,,,,,,,,,,,,,,,,,,,,,,,,,,983509,1,60,0xC000,en,2025-03-19_20h53.13.046,AB,2024.2.4,59.87876942651462,2025-03-19 20h53.21.354040 +0500,
single,dual,5,0,5,NINE,XXTENXX,9999999.0,10,3,7,f,f,related,space,1.1656102000270039,None,,,,,,,,,,0,0,0,0,0,2,2,2,5,0,5,0,,,,,,,,,17.992074699839577,,,,,,,,,,,,,,,,,,,JRLXKPC,17.980272699845955,17.992074699839577,18.025671100011095,18.025671100011095,18.07578339986503,18.061625599861145,,,,,,,,,,,,,,,,,,,,,,,,,,,,,,,,,,,,,,,,,,,,,,,,,,,,,,,,,,,,,,,,,,,,,983509,1,60,0xC000,en,2025-03-19_20h53.13.046,AB,2024.2.4,59.87876942651462,2025-03-19 20h53.21.354040 +0500,
single,dual,6,0,6,NINE,XXTENXX,9999999.0,10,3,7,f,f,related,space,1.1656102000270039,None,,,,,,,,,,0,0,0,0,0,2,2,2,6,0,6,0,,,,,,,,,18.07578339986503,,,,,,,,,,,,,,,,,,,WKDJZXL,18.063140399986878,18.07578339986503,18.108714199857786,18.108714199857786,18.15897829993628,18.144968800013885,,,,,,,,,,,,,,,,,,,,,,,,,,,,,,,,,,,,,,,,,,,,,,,,,,,,,,,,,,,,,,,,,,,,,983509,1,60,0xC000,en,2025-03-19_20h53.13.046,AB,2024.2.4,59.87876942651462,2025-03-19 20h53.21.354040 +0500,
single,dual,7,0,7,NINE,XXTENXX,9999999.0,10,3,7,f,f,related,space,1.1656102000270039,None,,,,,,,,,,0,0,0,0,0,2,2,2,7,0,7,0,,,,,,,,,18.15897829993628,,,,,,,,,,,,,,,,,,,RVMPLSB,18.146519399946555,18.15897829993628,18.19241839996539,18.19241839996539,18.242347799940035,18.228048200020567,,,,,,,,,,,,,,,,,,,,,,,,,,,,,,,,,,,,,,,,,,,,,,,,,,,,,,,,,,,,,,,,,,,,,983509,1,60,0xC000,en,2025-03-19_20h53.13.046,AB,2024.2.4,59.87876942651462,2025-03-19 20h53.21.354040 +0500,
single,dual,8,0,8,NINE,XXTENXX,9999999.0,10,3,7,f,f,related,space,1.1656102000270039,None,,,,,,,,,,0,0,0,0,0,2,2,2,8,0,8,0,,,,,,,,,18.242347799940035,,,,,,,,,,,,,,,,,,,CZDBFKY,18.229589499998838,18.242347799940035,18.275586999952793,18.275586999952793,18.374824499944225,18.31164769991301,,,,,,,,,,,,,,,,,,,,,,,,,,,,,,,,,,,,,,,,,,,,,,,,,,,,,,,,,,,,,,,,,,,,,983509,1,60,0xC000,en,2025-03-19_20h53.13.046,AB,2024.2.4,59.87876942651462,2025-03-19 20h53.21.354040 +0500,
single,dual,0,0,0,NINE,XXTENXX,9999999.0,10,3,7,f,f,related,space,1.1656102000270039,None,,,,,,,,,,0,0,0,0,0,2,2,2,,,,,0,0,0,0,,,,,18.459099299972877,,,,,,,,,,,,,,,,,,,,,,,,,,18.370333899976686,18.374824499944225,18.408775799907744,18.408775799907744,18.459099299972877,18.444944499991834,SGFBWPC,18.446585799800232,18.528392300009727,,,,,,,,,,,,,,,,,,,,,,,,,,,,,,,,,,,,18.459099299972877,18.492137199966237,18.492137199966237,18.542213199893013,,,,,,,,,,,,,,,,,,,,,983509,1,60,0xC000,en,2025-03-19_20h53.13.046,AB,2024.2.4,59.87876942651462,2025-03-19 20h53.21.354040 +0500,
single,dual,1,0,1,NINE,XXTENXX,9999999.0,10,3,7,f,f,related,space,1.1656102000270039,None,,,,,,,,,,0,0,0,0,0,2,2,2,,,,,1,0,1,0,,,,,18.542213199893013,,,,,,,,,,,,,,,,,,,,,,,,,,,,,,,,FWRNGTJ,18.5300103998743,18.61147339991294,,,,,,,,,,,,,,,,,,,,,,,,,,,,,,,,,,,,18.542213199893013,18.575714399805292,18.575714399805292,18.625717599876225,,,,,,,,,,,,,,,,,,,,,983509,1,60,0xC000,en,2025-03-19_20h53.13.046,AB,2024.2.4,59.87876942651462,2025-03-19 20h53.21.354040 +0500,
single,dual,0,0,0,NINE,XXTENXX,9999999.0,10,3,7,f,f,related,space,1.1656102000270039,None,,,,,,,,,,0,0,0,0,0,2,2,2,,,,,,,,,0,0,0,0,18.708978599868715,,,,,,,,,,,,,,,,,,,,,,,,,,,,,,,,,,,18.614921499975026,18.625717599876225,18.6586956998799,18.6586956998799,18.708978599868715,18.69498319993727,FWRNGTJ,18.696657699998468,18.708978599868715,18.742219700012356,18.742219700012356,18.79233430000022,18.778022199869156,,,,,,,,,,,,,,,,,,,,,,,,,,,,,,,,,,,,,,,,,,,,,,,983509,1,60,0xC000,en,2025-03-19_20h53.13.046,AB,2024.2.4,59.87876942651462,2025-03-19 20h53.21.354040 +0500,
single,dual,1,0,1,NINE,XXTENXX,9999999.0,10,3,7,f,f,related,space,1.1656102000270039,None,,,,,,,,,,0,0,0,0,0,2,2,2,,,,,,,,,1,0,1,0,18.79233430000022,,,,,,,,,,,,,,,,,,,,,,,,,,,,,,,,,,,,,,,,,GKQJLXH,18.7795661999844,18.79233430000022,18.825672699837014,18.825672699837014,18.875620999839157,18.86178659996949,,,,,,,,,,,,,,,,,,,,,,,,,,,,,,,,,,,,,,,,,,,,,,,983509,1,60,0xC000,en,2025-03-19_20h53.13.046,AB,2024.2.4,59.87876942651462,2025-03-19 20h53.21.354040 +0500,
single,dual,2,0,2,NINE,XXTENXX,9999999.0,10,3,7,f,f,related,space,1.1656102000270039,None,,,,,,,,,,0,0,0,0,0,2,2,2,,,,,,,,,2,0,2,0,18.875620999839157,,,,,,,,,,,,,,,,,,,,,,,,,,,,,,,,,,,,,,,,,KVBHLDM,18.86332120001316,18.875620999839157,18.908989599905908,18.908989599905908,18.95899449987337,18.9449918998871,,,,,,,,,,,,,,,,,,,,,,,,,,,,,,,,,,,,,,,,,,,,,,,983509,1,60,0xC000,en,2025-03-19_20h53.13.046,AB,2024.2.4,59.87876942651462,2025-03-19 20h53.21.354040 +0500,
single,dual,3,0,3,NINE,XXTENXX,9999999.0,10,3,7,f,f,related,space,1.1656102000270039,None,,,,,,,,,,0,0,0,0,0,2,2,2,,,,,,,,,3,0,3,0,18.95899449987337,,,,,,,,,,,,,,,,,,,,,,,,,,,,,,,,,,,,,,,,,FZNXGMB,18.946526299929246,18.95899449987337,18.992328899912536,18.992328899912536,19.04229999985546,19.02847439981997,,,,,,,,,,,,,,,,,,,,,,,,,,,,,,,,,,,,,,,,,,,,,,,983509,1,60,0xC000,en,2025-03-19_20h53.13.046,AB,2024.2.4,59.87876942651462,2025-03-19 20h53.21.354040 +0500,
single,dual,4,0,4,NINE,XXTENXX,9999999.0,10,3,7,f,f,related,space,1.1656102000270039,None,,,,,,,,,,0,0,0,0,0,2,2,2,,,,,,,,,4,0,4,0,19.04229999985546,,,,,,,,,,,,,,,,,,,,,,,,,,,,,,,,,,,,,,,,,GVCJXWN,19.030216799816117,19.04229999985546,19.075685899937525,19.075685899937525,19.12564929993823,19.111608000006527,,,,,,,,,,,,,,,,,,,,,,,,,,,,,,,,,,,,,,,,,,,,,,,983509,1,60,0xC000,en,2025-03-19_20h53.13.046,AB,2024.2.4,59.87876942651462,2025-03-19 20h53.21.354040 +0500,
single,dual,5,0,5,NINE,XXTENXX,9999999.0,10,3,7,f,f,related,space,1.1656102000270039,None,,,,,,,,,,0,0,0,0,0,2,2,2,,,,,,,,,5,0,5,0,19.12564929993823,,,,,,,,,,,,,,,,,,,,,,,,,,,,,,,,,,,,,,,,,MWXQGJL,19.113141799811274,19.12564929993823,19.158997599966824,19.158997599966824,19.20898859994486,19.195117199793458,,,,,,,,,,,,,,,,,,,,,,,,,,,,,,,,,,,,,,,,,,,,,,,983509,1,60,0xC000,en,2025-03-19_20h53.13.046,AB,2024.2.4,59.87876942651462,2025-03-19 20h53.21.354040 +0500,
single,dual,6,0,6,NINE,XXTENXX,9999999.0,10,3,7,f,f,related,space,1.1656102000270039,None,,,,,,,,,,0,0,0,0,0,2,2,2,,,,,,,,,6,0,6,0,19.20898859994486,,,,,,,,,,,,,,,,,,,,,,,,,,,,,,,,,,,,,,,,,BHZNCKY,19.196660799905658,19.20898859994486,19.242353499867022,19.242353499867022,19.292363399872556,19.278365299804136,,,,,,,,,,,,,,,,,,,,,,,,,,,,,,,,,,,,,,,,,,,,,,,983509,1,60,0xC000,en,2025-03-19_20h53.13.046,AB,2024.2.4,59.87876942651462,2025-03-19 20h53.21.354040 +0500,
single,dual,2,2,0,NINE,XXTENXX,9999999.0,10,3,7,f,f,related,space,1.1656102000270039,None,None,0,j,0,0.3869260000064969,None,,,,0,0,0,0,0,2,2,2,,,,,,,,,,,,,,,,,,,,,,,,,,,,,,,,,,,,,,,,,,,,,,,,,,,,,,,,,,,,,19.280555399833247,19.292363399872556,,20.282901299884543,20.28297709999606,20.283045899821445,None,0,20.283142699860036,20.28319659992121,20.283242999808863,20.293064599856734,20.293064599856734,20.71222489979118,j,0,0.3869260000064969,None,20.712310099974275,20.725719899870455,22.72560379980132,22.71184969996102,,,,,,,,,,,,,,,,,,,,,,,,,983509,1,60,0xC000,en,2025-03-19_20h53.13.046,AB,2024.2.4,59.87876942651462,2025-03-19 20h53.21.354040 +0500,
single,dual,0,0,0,DIPLOMA,XDEGREE,6666666.0,7,1,12,j,f,related,space,1.1656102000270039,None,,,,,,,,,,0,0,0,0,0,3,3,3,0,0,0,0,,,,,,,,,24.725820099934936,,,,,,,,,,,22.712214899947867,22.71248669992201,22.71518209995702,22.72560379980132,23.725589299807325,23.725589299807325,24.725820099934936,24.71197750000283,DLHGVSJ,24.713908799923956,24.725820099934936,24.758819999871776,24.758819999871776,24.809040799969807,24.795339899836108,,,,,,,,,,,,,,,,,,,,,,,,,,,,,,,,,,,,,,,,,,,,,,,,,,,,,,,,,,,,,,,,,,,,,983509,1,60,0xC000,en,2025-03-19_20h53.13.046,AB,2024.2.4,59.87876942651462,2025-03-19 20h53.21.354040 +0500,
single,dual,1,0,1,DIPLOMA,XDEGREE,6666666.0,7,1,12,j,f,related,space,1.1656102000270039,None,,,,,,,,,,0,0,0,0,0,3,3,3,1,0,1,0,,,,,,,,,24.809040799969807,,,,,,,,,,,,,,,,,,,DBVTYFN,24.797140799928457,24.809040799969807,24.842465199995786,24.842465199995786,24.892427899874747,24.87872499995865,,,,,,,,,,,,,,,,,,,,,,,,,,,,,,,,,,,,,,,,,,,,,,,,,,,,,,,,,,,,,,,,,,,,,983509,1,60,0xC000,en,2025-03-19_20h53.13.046,AB,2024.2.4,59.87876942651462,2025-03-19 20h53.21.354040 +0500,
single,dual,2,0,2,DIPLOMA,XDEGREE,6666666.0,7,1,12,j,f,related,space,1.1656102000270039,None,,,,,,,,,,0,0,0,0,0,3,3,3,2,0,2,0,,,,,,,,,24.892427899874747,,,,,,,,,,,,,,,,,,,QNFGVHB,24.88072029990144,24.892427899874747,24.925650799879804,24.925650799879804,24.975530199939385,24.96205319999717,,,,,,,,,,,,,,,,,,,,,,,,,,,,,,,,,,,,,,,,,,,,,,,,,,,,,,,,,,,,,,,,,,,,,983509,1,60,0xC000,en,2025-03-19_20h53.13.046,AB,2024.2.4,59.87876942651462,2025-03-19 20h53.21.354040 +0500,
single,dual,3,0,3,DIPLOMA,XDEGREE,6666666.0,7,1,12,j,f,related,space,1.1656102000270039,None,,,,,,,,,,0,0,0,0,0,3,3,3,3,0,3,0,,,,,,,,,24.975530199939385,,,,,,,,,,,,,,,,,,,KXSWVTQ,24.963830799795687,24.975530199939385,25.00910019990988,25.00910019990988,25.059187699807808,25.04536259989254,,,,,,,,,,,,,,,,,,,,,,,,,,,,,,,,,,,,,,,,,,,,,,,,,,,,,,,,,,,,,,,,,,,,,983509,1,60,0xC000,en,2025-03-19_20h53.13.046,AB,2024.2.4,59.87876942651462,2025-03-19 20h53.21.354040 +0500,
single,dual,4,0,4,DIPLOMA,XDEGREE,6666666.0,7,1,12,j,f,related,space,1.1656102000270039,None,,,,,,,,,,0,0,0,0,0,3,3,3,4,0,4,0,,,,,,,,,25.059187699807808,,,,,,,,,,,,,,,,,,,MZDCQPL,25.047154299914837,25.059187699807808,25.09219399979338,25.09219399979338,25.142392999958247,25.128687599906698,,,,,,,,,,,,,,,,,,,,,,,,,,,,,,,,,,,,,,,,,,,,,,,,,,,,,,,,,,,,,,,,,,,,,983509,1,60,0xC000,en,2025-03-19_20h53.13.046,AB,2024.2.4,59.87876942651462,2025-03-19 20h53.21.354040 +0500,
single,dual,5,0,5,DIPLOMA,XDEGREE,6666666.0,7,1,12,j,f,related,space,1.1656102000270039,None,,,,,,,,,,0,0,0,0,0,3,3,3,5,0,5,0,,,,,,,,,25.142392999958247,,,,,,,,,,,,,,,,,,,LPWRNVX,25.130461299791932,25.142392999958247,25.175750999944285,25.175750999944285,25.225662099896,25.212047699838877,,,,,,,,,,,,,,,,,,,,,,,,,,,,,,,,,,,,,,,,,,,,,,,,,,,,,,,,,,,,,,,,,,,,,983509,1,60,0xC000,en,2025-03-19_20h53.13.046,AB,2024.2.4,59.87876942651462,2025-03-19 20h53.21.354040 +0500,
single,dual,0,0,0,DIPLOMA,XDEGREE,6666666.0,7,1,12,j,f,related,space,1.1656102000270039,None,,,,,,,,,,0,0,0,0,0,3,3,3,,,,,0,0,0,0,,,,,25.30906859994866,,,,,,,,,,,,,,,,,,,,,,,,,,25.21769639989361,25.225662099896,25.25882579991594,25.25882579991594,25.30906859994866,25.295401999959722,,25.29731459985487,25.297349199885502,,,,,,,,,,,,,,,,,,,,,,,,,,,,,,,,,,,,,,,,,,,,,,,,,,,,,,,,,,,,983509,1,60,0xC000,en,2025-03-19_20h53.13.046,AB,2024.2.4,59.87876942651462,2025-03-19 20h53.21.354040 +0500,
single,dual,0,0,0,DIPLOMA,XDEGREE,6666666.0,7,1,12,j,f,related,space,1.1656102000270039,None,,,,,,,,,,0,0,0,0,0,3,3,3,,,,,,,,,0,0,0,0,25.392396199982613,,,,,,,,,,,,,,,,,,,,,,,,,,,,,,,,,,,25.301010699942708,25.30906859994866,25.342456499813125,25.342456499813125,25.392396199982613,25.378539899829775,SDQBCKZ,25.38045489997603,25.392396199982613,25.42572039994411,25.42572039994411,25.475770899793133,25.46213090000674,,,,,,,,,,,,,,,,,,,,,,,,,,,,,,,,,,,,,,,,,,,,,,,983509,1,60,0xC000,en,2025-03-19_20h53.13.046,AB,2024.2.4,59.87876942651462,2025-03-19 20h53.21.354040 +0500,
single,dual,1,0,1,DIPLOMA,XDEGREE,6666666.0,7,1,12,j,f,related,space,1.1656102000270039,None,,,,,,,,,,0,0,0,0,0,3,3,3,,,,,,,,,1,0,1,0,25.475770899793133,,,,,,,,,,,,,,,,,,,,,,,,,,,,,,,,,,,,,,,,,SWXLJNF,25.463928499957547,25.475770899793133,25.50909059983678,25.50909059983678,25.558968799887225,25.545392599888146,,,,,,,,,,,,,,,,,,,,,,,,,,,,,,,,,,,,,,,,,,,,,,,983509,1,60,0xC000,en,2025-03-19_20h53.13.046,AB,2024.2.4,59.87876942651462,2025-03-19 20h53.21.354040 +0500,
single,dual,2,0,2,DIPLOMA,XDEGREE,6666666.0,7,1,12,j,f,related,space,1.1656102000270039,None,,,,,,,,,,0,0,0,0,0,3,3,3,,,,,,,,,2,0,2,0,25.558968799887225,,,,,,,,,,,,,,,,,,,,,,,,,,,,,,,,,,,,,,,,,LFGQRCY,25.547470399877056,25.558968799887225,25.592419299995527,25.592419299995527,25.64246100001037,25.628726599970832,,,,,,,,,,,,,,,,,,,,,,,,,,,,,,,,,,,,,,,,,,,,,,,983509,1,60,0xC000,en,2025-03-19_20h53.13.046,AB,2024.2.4,59.87876942651462,2025-03-19 20h53.21.354040 +0500,
single,dual,3,0,3,DIPLOMA,XDEGREE,6666666.0,7,1,12,j,f,related,space,1.1656102000270039,None,,,,,,,,,,0,0,0,0,0,3,3,3,,,,,,,,,3,0,3,0,25.64246100001037,,,,,,,,,,,,,,,,,,,,,,,,,,,,,,,,,,,,,,,,,QXFNYGD,25.630528999958187,25.64246100001037,25.675647399853915,25.675647399853915,25.72552099986933,25.712071100017056,,,,,,,,,,,,,,,,,,,,,,,,,,,,,,,,,,,,,,,,,,,,,,,983509,1,60,0xC000,en,2025-03-19_20h53.13.046,AB,2024.2.4,59.87876942651462,2025-03-19 20h53.21.354040 +0500,
single,dual,4,0,4,DIPLOMA,XDEGREE,6666666.0,7,1,12,j,f,related,space,1.1656102000270039,None,,,,,,,,,,0,0,0,0,0,3,3,3,,,,,,,,,4,0,4,0,25.72552099986933,,,,,,,,,,,,,,,,,,,,,,,,,,,,,,,,,,,,,,,,,MKPSTRH,25.713862399803475,25.72552099986933,25.759044999955222,25.759044999955222,25.80913129984401,25.795359899988398,,,,,,,,,,,,,,,,,,,,,,,,,,,,,,,,,,,,,,,,,,,,,,,983509,1,60,0xC000,en,2025-03-19_20h53.13.046,AB,2024.2.4,59.87876942651462,2025-03-19 20h53.21.354040 +0500,
single,dual,5,0,5,DIPLOMA,XDEGREE,6666666.0,7,1,12,j,f,related,space,1.1656102000270039,None,,,,,,,,,,0,0,0,0,0,3,3,3,,,,,,,,,5,0,5,0,25.80913129984401,,,,,,,,,,,,,,,,,,,,,,,,,,,,,,,,,,,,,,,,,BTWHXDJ,25.79716550000012,25.80913129984401,25.842207399895415,25.842207399895415,25.892384900012985,25.878739499952644,,,,,,,,,,,,,,,,,,,,,,,,,,,,,,,,,,,,,,,,,,,,,,,983509,1,60,0xC000,en,2025-03-19_20h53.13.046,AB,2024.2.4,59.87876942651462,2025-03-19 20h53.21.354040 +0500,
single,dual,6,0,6,DIPLOMA,XDEGREE,6666666.0,7,1,12,j,f,related,space,1.1656102000270039,None,,,,,,,,,,0,0,0,0,0,3,3,3,,,,,,,,,6,0,6,0,25.892384900012985,,,,,,,,,,,,,,,,,,,,,,,,,,,,,,,,,,,,,,,,,PHZFTDX,25.880521199898794,25.892384900012985,25.925777199910954,25.925777199910954,25.975816399790347,25.961845299927518,,,,,,,,,,,,,,,,,,,,,,,,,,,,,,,,,,,,,,,,,,,,,,,983509,1,60,0xC000,en,2025-03-19_20h53.13.046,AB,2024.2.4,59.87876942651462,2025-03-19 20h53.21.354040 +0500,
single,dual,7,0,7,DIPLOMA,XDEGREE,6666666.0,7,1,12,j,f,related,space,1.1656102000270039,None,,,,,,,,,,0,0,0,0,0,3,3,3,,,,,,,,,7,0,7,0,25.975816399790347,,,,,,,,,,,,,,,,,,,,,,,,,,,,,,,,,,,,,,,,,YNHTVPC,25.96362389996648,25.975816399790347,26.009066599886864,26.009066599886864,26.059090199880302,26.04542319988832,,,,,,,,,,,,,,,,,,,,,,,,,,,,,,,,,,,,,,,,,,,,,,,983509,1,60,0xC000,en,2025-03-19_20h53.13.046,AB,2024.2.4,59.87876942651462,2025-03-19 20h53.21.354040 +0500,
single,dual,8,0,8,DIPLOMA,XDEGREE,6666666.0,7,1,12,j,f,related,space,1.1656102000270039,None,,,,,,,,,,0,0,0,0,0,3,3,3,,,,,,,,,8,0,8,0,26.059090199880302,,,,,,,,,,,,,,,,,,,,,,,,,,,,,,,,,,,,,,,,,JFWMRNC,26.04747310001403,26.059090199880302,26.09247319982387,26.09247319982387,26.142399800010026,26.12847619992681,,,,,,,,,,,,,,,,,,,,,,,,,,,,,,,,,,,,,,,,,,,,,,,983509,1,60,0xC000,en,2025-03-19_20h53.13.046,AB,2024.2.4,59.87876942651462,2025-03-19 20h53.21.354040 +0500,
single,dual,9,0,9,DIPLOMA,XDEGREE,6666666.0,7,1,12,j,f,related,space,1.1656102000270039,None,,,,,,,,,,0,0,0,0,0,3,3,3,,,,,,,,,9,0,9,0,26.142399800010026,,,,,,,,,,,,,,,,,,,,,,,,,,,,,,,,,,,,,,,,,LSNZWPV,26.130273299990222,26.142399800010026,26.175770099973306,26.175770099973306,26.225782199995592,26.21215739985928,,,,,,,,,,,,,,,,,,,,,,,,,,,,,,,,,,,,,,,,,,,,,,,983509,1,60,0xC000,en,2025-03-19_20h53.13.046,AB,2024.2.4,59.87876942651462,2025-03-19 20h53.21.354040 +0500,
single,dual,10,0,10,DIPLOMA,XDEGREE,6666666.0,7,1,12,j,f,related,space,1.1656102000270039,None,,,,,,,,,,0,0,0,0,0,3,3,3,,,,,,,,,10,0,10,0,26.225782199995592,,,,,,,,,,,,,,,,,,,,,,,,,,,,,,,,,,,,,,,,,PTKBZWM,26.21394359995611,26.225782199995592,26.259093699976802,26.259093699976802,26.309059799881652,26.295366699807346,,,,,,,,,,,,,,,,,,,,,,,,,,,,,,,,,,,,,,,,,,,,,,,983509,1,60,0xC000,en,2025-03-19_20h53.13.046,AB,2024.2.4,59.87876942651462,2025-03-19 20h53.21.354040 +0500,
single,dual,11,0,11,DIPLOMA,XDEGREE,6666666.0,7,1,12,j,f,related,space,1.1656102000270039,None,,,,,,,,,,0,0,0,0,0,3,3,3,,,,,,,,,11,0,11,0,26.309059799881652,,,,,,,,,,,,,,,,,,,,,,,,,,,,,,,,,,,,,,,,,LYMBSJW,26.297191999852657,26.309059799881652,26.342411699937657,26.342411699937657,26.39243259979412,26.378807599889114,,,,,,,,,,,,,,,,,,,,,,,,,,,,,,,,,,,,,,,,,,,,,,,983509,1,60,0xC000,en,2025-03-19_20h53.13.046,AB,2024.2.4,59.87876942651462,2025-03-19 20h53.21.354040 +0500,
single,dual,3,3,0,DIPLOMA,XDEGREE,6666666.0,7,1,12,j,f,related,space,1.1656102000270039,None,None,0,j,0,0.503792200004682,None,,,,0,0,0,0,0,3,3,3,,,,,,,,,,,,,,,,,,,,,,,,,,,,,,,,,,,,,,,,,,,,,,,,,,,,,,,,,,,,,26.381699499906972,26.39243259979412,27.392463199794292,27.378198999911547,27.378229999914765,27.378252599854022,None,0,27.37831659987569,27.37833460001275,27.378349900012836,27.392463199794292,27.392463199794292,27.928762399824336,j,0,0.503792200004682,None,27.928850799798965,27.94221429992467,29.95848779985681,29.928228499833494,,,,,,,,,,,,,,,,,,,,,,,,,983509,1,60,0xC000,en,2025-03-19_20h53.13.046,AB,2024.2.4,59.87876942651462,2025-03-19 20h53.21.354040 +0500,
single,dual,0,0,0,,,,,,,,,,space,1.1656102000270039,None,,,,,,,None,,,0,0,0,0,,,,,,,,,,,,,,,,,,,,,,,,,,,,,,,,,,,,,,,,,,,,,,,,,,,,,,,,,,,,,,,,,,,,,,,,,,,,,,,,,,,,,,,,,,,29.93973679980263,29.95848779985681,29.95848779985681,30.94452939997427,None,,,,,,,,,,,,,,,,983509,1,60,0xC000,en,2025-03-19_20h53.13.046,AB,2024.2.4,59.87876942651462,2025-03-19 20h53.21.354040 +0500,
single,dual,0,0,0,YOURS,XSTEALX,3333333.0,10,1,9,f,j,unrelated,None,,,,,,,,,,,,0,1,1,1,0,0,0,0,0,0,0,0,,,,,,,,,33.10930209979415,,30.94468849990517,30.944981099804863,30.94546529999934,,,30.945488899946213,None,,,31.10228529991582,31.102609499823302,31.104234299855307,31.108433799818158,32.10924010002054,32.10924010002054,33.10930209979415,33.095329199917614,TGMFLSZ,33.097033499972895,33.10930209979415,33.14265049993992,33.14265049993992,33.192090899916366,33.17790969996713,,,,,,,,,,,,,,,,,,,,,,,,,,,,,,,,,,,,,,,,,,,,,,,,,,,,,,,,,,,,,,,,,,,,,983509,1,60,0xC000,en,2025-03-19_20h53.13.046,AB,2024.2.4,59.87876942651462,2025-03-19 20h53.21.354040 +0500,
single,dual,1,0,1,YOURS,XSTEALX,3333333.0,10,1,9,f,j,unrelated,None,,,,,,,,,,,,0,1,1,1,0,0,0,0,1,0,1,0,,,,,,,,,33.192090899916366,,,,,,,,,,,,,,,,,,,SJMHVLR,33.17950359988026,33.192090899916366,33.22546839993447,33.22546839993447,33.27552919997834,33.26137079996988,,,,,,,,,,,,,,,,,,,,,,,,,,,,,,,,,,,,,,,,,,,,,,,,,,,,,,,,,,,,,,,,,,,,,983509,1,60,0xC000,en,2025-03-19_20h53.13.046,AB,2024.2.4,59.87876942651462,2025-03-19 20h53.21.354040 +0500,
single,dual,2,0,2,YOURS,XSTEALX,3333333.0,10,1,9,f,j,unrelated,None,,,,,,,,,,,,0,1,1,1,0,0,0,0,2,0,2,0,,,,,,,,,33.27552919997834,,,,,,,,,,,,,,,,,,,ZDCKYVQ,33.26307589979842,33.27552919997834,33.308762499829754,33.308762499829754,33.35873039998114,33.344675899948925,,,,,,,,,,,,,,,,,,,,,,,,,,,,,,,,,,,,,,,,,,,,,,,,,,,,,,,,,,,,,,,,,,,,,983509,1,60,0xC000,en,2025-03-19_20h53.13.046,AB,2024.2.4,59.87876942651462,2025-03-19 20h53.21.354040 +0500,
single,dual,3,0,3,YOURS,XSTEALX,3333333.0,10,1,9,f,j,unrelated,None,,,,,,,,,,,,0,1,1,1,0,0,0,0,3,0,3,0,,,,,,,,,33.35873039998114,,,,,,,,,,,,,,,,,,,WQRTDZC,33.346563400002196,33.35873039998114,33.392150999978185,33.392150999978185,33.44218899984844,33.42813039990142,,,,,,,,,,,,,,,,,,,,,,,,,,,,,,,,,,,,,,,,,,,,,,,,,,,,,,,,,,,,,,,,,,,,,983509,1,60,0xC000,en,2025-03-19_20h53.13.046,AB,2024.2.4,59.87876942651462,2025-03-19 20h53.21.354040 +0500,
single,dual,4,0,4,YOURS,XSTEALX,3333333.0,10,1,9,f,j,unrelated,None,,,,,,,,,,,,0,1,1,1,0,0,0,0,4,0,4,0,,,,,,,,,33.44218899984844,,,,,,,,,,,,,,,,,,,FSRJGZB,33.42982349987142,33.44218899984844,33.47551479982212,33.47551479982212,33.52545419987291,33.51138469995931,,,,,,,,,,,,,,,,,,,,,,,,,,,,,,,,,,,,,,,,,,,,,,,,,,,,,,,,,,,,,,,,,,,,,983509,1,60,0xC000,en,2025-03-19_20h53.13.046,AB,2024.2.4,59.87876942651462,2025-03-19 20h53.21.354040 +0500,
single,dual,5,0,5,YOURS,XSTEALX,3333333.0,10,1,9,f,j,unrelated,None,,,,,,,,,,,,0,1,1,1,0,0,0,0,5,0,5,0,,,,,,,,,33.52545419987291,,,,,,,,,,,,,,,,,,,DWXZLTQ,33.512991999974474,33.52545419987291,33.55879129981622,33.55879129981622,33.608797299908474,33.5946690000128,,,,,,,,,,,,,,,,,,,,,,,,,,,,,,,,,,,,,,,,,,,,,,,,,,,,,,,,,,,,,,,,,,,,,983509,1,60,0xC000,en,2025-03-19_20h53.13.046,AB,2024.2.4,59.87876942651462,2025-03-19 20h53.21.354040 +0500,
single,dual,6,0,6,YOURS,XSTEALX,3333333.0,10,1,9,f,j,unrelated,None,,,,,,,,,,,,0,1,1,1,0,0,0,0,6,0,6,0,,,,,,,,,33.608797299908474,,,,,,,,,,,,,,,,,,,WDMSBYQ,33.59624829981476,33.608797299908474,33.64210269995965,33.64210269995965,33.69206849997863,33.677722399821505,,,,,,,,,,,,,,,,,,,,,,,,,,,,,,,,,,,,,,,,,,,,,,,,,,,,,,,,,,,,,,,,,,,,,983509,1,60,0xC000,en,2025-03-19_20h53.13.046,AB,2024.2.4,59.87876942651462,2025-03-19 20h53.21.354040 +0500,
single,dual,7,0,7,YOURS,XSTEALX,3333333.0,10,1,9,f,j,unrelated,None,,,,,,,,,,,,0,1,1,1,0,0,0,0,7,0,7,0,,,,,,,,,33.69206849997863,,,,,,,,,,,,,,,,,,,WXSTKCZ,33.679270199965686,33.69206849997863,33.725748599972576,33.725748599972576,33.775880499975756,33.76186480000615,,,,,,,,,,,,,,,,,,,,,,,,,,,,,,,,,,,,,,,,,,,,,,,,,,,,,,,,,,,,,,,,,,,,,983509,1,60,0xC000,en,2025-03-19_20h53.13.046,AB,2024.2.4,59.87876942651462,2025-03-19 20h53.21.354040 +0500,
single,dual,8,0,8,YOURS,XSTEALX,3333333.0,10,1,9,f,j,unrelated,None,,,,,,,,,,,,0,1,1,1,0,0,0,0,8,0,8,0,,,,,,,,,33.775880499975756,,,,,,,,,,,,,,,,,,,MNYXZBH,33.76339949993417,33.775880499975756,33.80925259995274,33.80925259995274,33.859073099913076,33.84544079983607,,,,,,,,,,,,,,,,,,,,,,,,,,,,,,,,,,,,,,,,,,,,,,,,,,,,,,,,,,,,,,,,,,,,,983509,1,60,0xC000,en,2025-03-19_20h53.13.046,AB,2024.2.4,59.87876942651462,2025-03-19 20h53.21.354040 +0500,
single,dual,0,0,0,YOURS,XSTEALX,3333333.0,10,1,9,f,j,unrelated,None,,,,,,,,,,,,0,1,1,1,0,0,0,0,,,,,0,0,0,0,,,,,33.94241789984517,,,,,,,,,,,,,,,,,,,,,,,,,,33.850595499854535,33.859073099913076,33.89255420002155,33.89255420002155,33.94241789984517,33.92865899996832,,33.93033819994889,33.93036499992013,,,,,,,,,,,,,,,,,,,,,,,,,,,,,,,,,,,,,,,,,,,,,,,,,,,,,,,,,,,,983509,1,60,0xC000,en,2025-03-19_20h53.13.046,AB,2024.2.4,59.87876942651462,2025-03-19 20h53.21.354040 +0500,
single,dual,0,0,0,YOURS,XSTEALX,3333333.0,10,1,9,f,j,unrelated,None,,,,,,,,,,,,0,1,1,1,0,0,0,0,,,,,,,,,0,0,0,0,34.02598469983786,,,,,,,,,,,,,,,,,,,,,,,,,,,,,,,,,,,33.93365369993262,33.94241789984517,33.975861799903214,33.975861799903214,34.02598469983786,34.01189009984955,SVLPXQF,34.01356259989552,34.02598469983786,34.05910919979215,34.05910919979215,34.1089702998288,34.09521749988198,,,,,,,,,,,,,,,,,,,,,,,,,,,,,,,,,,,,,,,,,,,,,,,983509,1,60,0xC000,en,2025-03-19_20h53.13.046,AB,2024.2.4,59.87876942651462,2025-03-19 20h53.21.354040 +0500,
single,dual,1,0,1,YOURS,XSTEALX,3333333.0,10,1,9,f,j,unrelated,None,,,,,,,,,,,,0,1,1,1,0,0,0,0,,,,,,,,,1,0,1,0,34.1089702998288,,,,,,,,,,,,,,,,,,,,,,,,,,,,,,,,,,,,,,,,,YKHGNTZ,34.09679149999283,34.1089702998288,34.14236789988354,34.14236789988354,34.19268099986948,34.17822869983502,,,,,,,,,,,,,,,,,,,,,,,,,,,,,,,,,,,,,,,,,,,,,,,983509,1,60,0xC000,en,2025-03-19_20h53.13.046,AB,2024.2.4,59.87876942651462,2025-03-19 20h53.21.354040 +0500,
single,dual,2,0,2,YOURS,XSTEALX,3333333.0,10,1,9,f,j,unrelated,None,,,,,,,,,,,,0,1,1,1,0,0,0,0,,,,,,,,,2,0,2,0,34.19268099986948,,,,,,,,,,,,,,,,,,,,,,,,,,,,,,,,,,,,,,,,,BZXFJRW,34.17981639993377,34.19268099986948,34.22600089991465,34.22600089991465,34.27599019999616,34.26170519995503,,,,,,,,,,,,,,,,,,,,,,,,,,,,,,,,,,,,,,,,,,,,,,,983509,1,60,0xC000,en,2025-03-19_20h53.13.046,AB,2024.2.4,59.87876942651462,2025-03-19 20h53.21.354040 +0500,
single,dual,3,0,3,YOURS,XSTEALX,3333333.0,10,1,9,f,j,unrelated,None,,,,,,,,,,,,0,1,1,1,0,0,0,0,,,,,,,,,3,0,3,0,34.27599019999616,,,,,,,,,,,,,,,,,,,,,,,,,,,,,,,,,,,,,,,,,NDHBMFK,34.26326229982078,34.27599019999616,34.30900999996811,34.30900999996811,34.35930709983222,34.34525000001304,,,,,,,,,,,,,,,,,,,,,,,,,,,,,,,,,,,,,,,,,,,,,,,983509,1,60,0xC000,en,2025-03-19_20h53.13.046,AB,2024.2.4,59.87876942651462,2025-03-19 20h53.21.354040 +0500,
single,dual,4,0,4,YOURS,XSTEALX,3333333.0,10,1,9,f,j,unrelated,None,,,,,,,,,,,,0,1,1,1,0,0,0,0,,,,,,,,,4,0,4,0,34.35930709983222,,,,,,,,,,,,,,,,,,,,,,,,,,,,,,,,,,,,,,,,,TFNWDCB,34.34681529994123,34.35930709983222,34.39266219991259,34.39266219991259,34.4425528999418,34.428348399931565,,,,,,,,,,,,,,,,,,,,,,,,,,,,,,,,,,,,,,,,,,,,,,,983509,1,60,0xC000,en,2025-03-19_20h53.13.046,AB,2024.2.4,59.87876942651462,2025-03-19 20h53.21.354040 +0500,
single,dual,5,0,5,YOURS,XSTEALX,3333333.0,10,1,9,f,j,unrelated,None,,,,,,,,,,,,0,1,1,1,0,0,0,0,,,,,,,,,5,0,5,0,34.4425528999418,,,,,,,,,,,,,,,,,,,,,,,,,,,,,,,,,,,,,,,,,YXVKZLN,34.43010509992018,34.4425528999418,34.47592889983207,34.47592889983207,34.52591359987855,34.511987400008366,,,,,,,,,,,,,,,,,,,,,,,,,,,,,,,,,,,,,,,,,,,,,,,983509,1,60,0xC000,en,2025-03-19_20h53.13.046,AB,2024.2.4,59.87876942651462,2025-03-19 20h53.21.354040 +0500,
single,dual,6,0,6,YOURS,XSTEALX,3333333.0,10,1,9,f,j,unrelated,None,,,,,,,,,,,,0,1,1,1,0,0,0,0,,,,,,,,,6,0,6,0,34.52591359987855,,,,,,,,,,,,,,,,,,,,,,,,,,,,,,,,,,,,,,,,,JQWNMPD,34.513661599950865,34.52591359987855,34.559239599853754,34.559239599853754,34.60909799998626,34.59526059986092,,,,,,,,,,,,,,,,,,,,,,,,,,,,,,,,,,,,,,,,,,,,,,,983509,1,60,0xC000,en,2025-03-19_20h53.13.046,AB,2024.2.4,59.87876942651462,2025-03-19 20h53.21.354040 +0500,
single,dual,7,0,7,YOURS,XSTEALX,3333333.0,10,1,9,f,j,unrelated,None,,,,,,,,,,,,0,1,1,1,0,0,0,0,,,,,,,,,7,0,7,0,34.60909799998626,,,,,,,,,,,,,,,,,,,,,,,,,,,,,,,,,,,,,,,,,DPXFSHV,34.596906799823046,34.60909799998626,34.642592299962416,34.642592299962416,34.6926233000122,34.67859939998016,,,,,,,,,,,,,,,,,,,,,,,,,,,,,,,,,,,,,,,,,,,,,,,983509,1,60,0xC000,en,2025-03-19_20h53.13.046,AB,2024.2.4,59.87876942651462,2025-03-19 20h53.21.354040 +0500,
single,dual,8,0,8,YOURS,XSTEALX,3333333.0,10,1,9,f,j,unrelated,None,,,,,,,,,,,,0,1,1,1,0,0,0,0,,,,,,,,,8,0,8,0,34.6926233000122,,,,,,,,,,,,,,,,,,,,,,,,,,,,,,,,,,,,,,,,,XBRZNQS,34.68015649984591,34.6926233000122,34.7258025999181,34.7258025999181,34.77565720002167,34.76191949984059,,,,,,,,,,,,,,,,,,,,,,,,,,,,,,,,,,,,,,,,,,,,,,,983509,1,60,0xC000,en,2025-03-19_20h53.13.046,AB,2024.2.4,59.87876942651462,2025-03-19 20h53.21.354040 +0500,
single,dual,0,0,0,YOURS,XSTEALX,3333333.0,10,1,9,f,j,unrelated,None,,,None,0,j,1,0.4810035000555217,None,,,,0,1,1,1,0,0,0,0,,,,,,,,,,,,,,,,,,,,,,,,,,,,,,,,,,,,,,,,,,,,,,,,,,,,,,,,,,,,,34.76426129997708,34.77565720002167,35.77576979994774,35.761507799848914,35.76155289984308,35.76158029981889,None,0,35.76161489984952,35.76163269998506,35.76164899999276,35.77576979994774,35.77576979994774,36.27877649990842,j,1,0.4810035000555217,None,36.278865200001746,36.292717000003904,38.292710199952126,38.27873129979707,,,,,,,,,,,,,,,,,,,,,,,,,983509,1,60,0xC000,en,2025-03-19_20h53.13.046,AB,2024.2.4,59.87876942651462,2025-03-19 20h53.21.354040 +0500,
single,dual,0,0,0,PILOT,XPLANEX,3333333.0,10,1,9,f,f,related,None,,,,,,,,,,,,0,1,1,1,0,1,1,1,0,0,0,0,,,,,,,,,40.292770199943334,,,,,,,,,,,38.279057199833915,38.27934039989486,38.28078349982388,38.292710199952126,39.292618999956176,39.292618999956176,40.292770199943334,40.27856219979003,CPRWHVX,40.28039259999059,40.292770199943334,40.32576369983144,40.32576369983144,40.37595869996585,40.36214209999889,,,,,,,,,,,,,,,,,,,,,,,,,,,,,,,,,,,,,,,,,,,,,,,,,,,,,,,,,,,,,,,,,,,,,983509,1,60,0xC000,en,2025-03-19_20h53.13.046,AB,2024.2.4,59.87876942651462,2025-03-19 20h53.21.354040 +0500,
single,dual,1,0,1,PILOT,XPLANEX,3333333.0,10,1,9,f,f,related,None,,,,,,,,,,,,0,1,1,1,0,1,1,1,1,0,1,0,,,,,,,,,40.37595869996585,,,,,,,,,,,,,,,,,,,CSYPBNK,40.36371729988605,40.37595869996585,40.409439999843016,40.409439999843016,40.45939229987562,40.44512139982544,,,,,,,,,,,,,,,,,,,,,,,,,,,,,,,,,,,,,,,,,,,,,,,,,,,,,,,,,,,,,,,,,,,,,983509,1,60,0xC000,en,2025-03-19_20h53.13.046,AB,2024.2.4,59.87876942651462,2025-03-19 20h53.21.354040 +0500,
single,dual,2,0,2,PILOT,XPLANEX,3333333.0,10,1,9,f,f,related,None,,,,,,,,,,,,0,1,1,1,0,1,1,1,2,0,2,0,,,,,,,,,40.45939229987562,,,,,,,,,,,,,,,,,,,HZLNXPR,40.44667669991031,40.45939229987562,40.492619699798524,40.492619699798524,40.54264929983765,40.52863559988327,,,,,,,,,,,,,,,,,,,,,,,,,,,,,,,,,,,,,,,,,,,,,,,,,,,,,,,,,,,,,,,,,,,,,983509,1,60,0xC000,en,2025-03-19_20h53.13.046,AB,2024.2.4,59.87876942651462,2025-03-19 20h53.21.354040 +0500,
single,dual,3,0,3,PILOT,XPLANEX,3333333.0,10,1,9,f,f,related,None,,,,,,,,,,,,0,1,1,1,0,1,1,1,3,0,3,0,,,,,,,,,40.54264929983765,,,,,,,,,,,,,,,,,,,HBZXMTR,40.53020459995605,40.54264929983765,40.57612379989587,40.57612379989587,40.62614199984819,40.611851499881595,,,,,,,,,,,,,,,,,,,,,,,,,,,,,,,,,,,,,,,,,,,,,,,,,,,,,,,,,,,,,,,,,,,,,983509,1,60,0xC000,en,2025-03-19_20h53.13.046,AB,2024.2.4,59.87876942651462,2025-03-19 20h53.21.354040 +0500,
single,dual,4,0,4,PILOT,XPLANEX,3333333.0,10,1,9,f,f,related,None,,,,,,,,,,,,0,1,1,1,0,1,1,1,4,0,4,0,,,,,,,,,40.62614199984819,,,,,,,,,,,,,,,,,,,ZMFNCTX,40.61339859990403,40.62614199984819,40.65908359992318,40.65908359992318,40.7093452999834,40.69539529993199,,,,,,,,,,,,,,,,,,,,,,,,,,,,,,,,,,,,,,,,,,,,,,,,,,,,,,,,,,,,,,,,,,,,,983509,1,60,0xC000,en,2025-03-19_20h53.13.046,AB,2024.2.4,59.87876942651462,2025-03-19 20h53.21.354040 +0500,
single,dual,5,0,5,PILOT,XPLANEX,3333333.0,10,1,9,f,f,related,None,,,,,,,,,,,,0,1,1,1,0,1,1,1,5,0,5,0,,,,,,,,,40.7093452999834,,,,,,,,,,,,,,,,,,,FJTRNKQ,40.69697379996069,40.7093452999834,40.74254799983464,40.74254799983464,40.79271399998106,40.7784132999368,,,,,,,,,,,,,,,,,,,,,,,,,,,,,,,,,,,,,,,,,,,,,,,,,,,,,,,,,,,,,,,,,,,,,983509,1,60,0xC000,en,2025-03-19_20h53.13.046,AB,2024.2.4,59.87876942651462,2025-03-19 20h53.21.354040 +0500,
single,dual,6,0,6,PILOT,XPLANEX,3333333.0,10,1,9,f,f,related,None,,,,,,,,,,,,0,1,1,1,0,1,1,1,6,0,6,0,,,,,,,,,40.79271399998106,,,,,,,,,,,,,,,,,,,KXVJWSP,40.78019089996815,40.79271399998106,40.825965099968016,40.825965099968016,40.87604009988718,40.8620193998795,,,,,,,,,,,,,,,,,,,,,,,,,,,,,,,,,,,,,,,,,,,,,,,,,,,,,,,,,,,,,,,,,,,,,983509,1,60,0xC000,en,2025-03-19_20h53.13.046,AB,2024.2.4,59.87876942651462,2025-03-19 20h53.21.354040 +0500,
single,dual,7,0,7,PILOT,XPLANEX,3333333.0,10,1,9,f,f,related,None,,,,,,,,,,,,0,1,1,1,0,1,1,1,7,0,7,0,,,,,,,,,40.87604009988718,,,,,,,,,,,,,,,,,,,BYTXPWH,40.86359480000101,40.87604009988718,40.90947289997712,40.90947289997712,40.95935229980387,40.94505769992247,,,,,,,,,,,,,,,,,,,,,,,,,,,,,,,,,,,,,,,,,,,,,,,,,,,,,,,,,,,,,,,,,,,,,983509,1,60,0xC000,en,2025-03-19_20h53.13.046,AB,2024.2.4,59.87876942651462,2025-03-19 20h53.21.354040 +0500,
single,dual,8,0,8,PILOT,XPLANEX,3333333.0,10,1,9,f,f,related,None,,,,,,,,,,,,0,1,1,1,0,1,1,1,8,0,8,0,,,,,,,,,40.95935229980387,,,,,,,,,,,,,,,,,,,HJSBWMF,40.94661119999364,40.95935229980387,40.99247759999707,40.99247759999707,41.04242909979075,41.02882249979302,,,,,,,,,,,,,,,,,,,,,,,,,,,,,,,,,,,,,,,,,,,,,,,,,,,,,,,,,,,,,,,,,,,,,983509,1,60,0xC000,en,2025-03-19_20h53.13.046,AB,2024.2.4,59.87876942651462,2025-03-19 20h53.21.354040 +0500,
single,dual,0,0,0,PILOT,XPLANEX,3333333.0,10,1,9,f,f,related,None,,,,,,,,,,,,0,1,1,1,0,1,1,1,,,,,0,0,0,0,,,,,41.12612129980698,,,,,,,,,,,,,,,,,,,,,,,,,,41.03097720001824,41.04242909979075,41.076000599889085,41.076000599889085,41.12612129980698,41.11187829985283,,41.11374229984358,41.11376979993656,,,,,,,,,,,,,,,,,,,,,,,,,,,,,,,,,,,,,,,,,,,,,,,,,,,,,,,,,,,,983509,1,60,0xC000,en,2025-03-19_20h53.13.046,AB,2024.2.4,59.87876942651462,2025-03-19 20h53.21.354040 +0500,
single,dual,0,0,0,PILOT,XPLANEX,3333333.0,10,1,9,f,f,related,None,,,,,,,,,,,,0,1,1,1,0,1,1,1,,,,,,,,,0,0,0,0,41.20944909984246,,,,,,,,,,,,,,,,,,,,,,,,,,,,,,,,,,,41.11688779992983,41.12612129980698,41.15912859980017,41.15912859980017,41.20944909984246,41.19531310000457,PKTBWZX,41.197032999945804,41.20944909984246,41.24281739979051,41.24281739979051,41.292747899889946,41.278462699847296,,,,,,,,,,,,,,,,,,,,,,,,,,,,,,,,,,,,,,,,,,,,,,,983509,1,60,0xC000,en,2025-03-19_20h53.13.046,AB,2024.2.4,59.87876942651462,2025-03-19 20h53.21.354040 +0500,
single,dual,1,0,1,PILOT,XPLANEX,3333333.0,10,1,9,f,f,related,None,,,,,,,,,,,,0,1,1,1,0,1,1,1,,,,,,,,,1,0,1,0,41.292747899889946,,,,,,,,,,,,,,,,,,,,,,,,,,,,,,,,,,,,,,,,,WMQSCJK,41.2800199999474,41.292747899889946,41.32596239983104,41.32596239983104,41.37605849979445,41.362202799879014,,,,,,,,,,,,,,,,,,,,,,,,,,,,,,,,,,,,,,,,,,,,,,,983509,1,60,0xC000,en,2025-03-19_20h53.13.046,AB,2024.2.4,59.87876942651462,2025-03-19 20h53.21.354040 +0500,
single,dual,2,0,2,PILOT,XPLANEX,3333333.0,10,1,9,f,f,related,None,,,,,,,,,,,,0,1,1,1,0,1,1,1,,,,,,,,,2,0,2,0,41.37605849979445,,,,,,,,,,,,,,,,,,,,,,,,,,,,,,,,,,,,,,,,,LCZTFQV,41.36375519982539,41.37605849979445,41.40941149997525,41.40941149997525,41.459302600007504,41.4453566998709,,,,,,,,,,,,,,,,,,,,,,,,,,,,,,,,,,,,,,,,,,,,,,,983509,1,60,0xC000,en,2025-03-19_20h53.13.046,AB,2024.2.4,59.87876942651462,2025-03-19 20h53.21.354040 +0500,
single,dual,3,0,3,PILOT,XPLANEX,3333333.0,10,1,9,f,f,related,None,,,,,,,,,,,,0,1,1,1,0,1,1,1,,,,,,,,,3,0,3,0,41.459302600007504,,,,,,,,,,,,,,,,,,,,,,,,,,,,,,,,,,,,,,,,,MBHJQXP,41.447472899919376,41.459302600007504,41.49269499978982,41.49269499978982,41.542679999955,41.52886359998956,,,,,,,,,,,,,,,,,,,,,,,,,,,,,,,,,,,,,,,,,,,,,,,983509,1,60,0xC000,en,2025-03-19_20h53.13.046,AB,2024.2.4,59.87876942651462,2025-03-19 20h53.21.354040 +0500,
single,dual,4,0,4,PILOT,XPLANEX,3333333.0,10,1,9,f,f,related,None,,,,,,,,,,,,0,1,1,1,0,1,1,1,,,,,,,,,4,0,4,0,41.542679999955,,,,,,,,,,,,,,,,,,,,,,,,,,,,,,,,,,,,,,,,,PKJDWCQ,41.530407699989155,41.542679999955,41.57599149993621,41.57599149993621,41.625878599938005,41.61207069992088,,,,,,,,,,,,,,,,,,,,,,,,,,,,,,,,,,,,,,,,,,,,,,,983509,1,60,0xC000,en,2025-03-19_20h53.13.046,AB,2024.2.4,59.87876942651462,2025-03-19 20h53.21.354040 +0500,
single,dual,5,0,5,PILOT,XPLANEX,3333333.0,10,1,9,f,f,related,None,,,,,,,,,,,,0,1,1,1,0,1,1,1,,,,,,,,,5,0,5,0,41.625878599938005,,,,,,,,,,,,,,,,,,,,,,,,,,,,,,,,,,,,,,,,,YHMGTRS,41.613641700008884,41.625878599938005,41.659362599952146,41.659362599952146,41.70939169987105,41.69532489986159,,,,,,,,,,,,,,,,,,,,,,,,,,,,,,,,,,,,,,,,,,,,,,,983509,1,60,0xC000,en,2025-03-19_20h53.13.046,AB,2024.2.4,59.87876942651462,2025-03-19 20h53.21.354040 +0500,
single,dual,6,0,6,PILOT,XPLANEX,3333333.0,10,1,9,f,f,related,None,,,,,,,,,,,,0,1,1,1,0,1,1,1,,,,,,,,,6,0,6,0,41.70939169987105,,,,,,,,,,,,,,,,,,,,,,,,,,,,,,,,,,,,,,,,,ZBHFQYC,41.69688709988259,41.70939169987105,41.74259819998406,41.74259819998406,41.79241979983635,41.778796799946576,,,,,,,,,,,,,,,,,,,,,,,,,,,,,,,,,,,,,,,,,,,,,,,983509,1,60,0xC000,en,2025-03-19_20h53.13.046,AB,2024.2.4,59.87876942651462,2025-03-19 20h53.21.354040 +0500,
single,dual,7,0,7,PILOT,XPLANEX,3333333.0,10,1,9,f,f,related,None,,,,,,,,,,,,0,1,1,1,0,1,1,1,,,,,,,,,7,0,7,0,41.79241979983635,,,,,,,,,,,,,,,,,,,,,,,,,,,,,,,,,,,,,,,,,FJZHTCN,41.780447099823505,41.79241979983635,41.825986800016835,41.825986800016835,41.87585929990746,41.86212049983442,,,,,,,,,,,,,,,,,,,,,,,,,,,,,,,,,,,,,,,,,,,,,,,983509,1,60,0xC000,en,2025-03-19_20h53.13.046,AB,2024.2.4,59.87876942651462,2025-03-19 20h53.21.354040 +0500,
single,dual,8,0,8,PILOT,XPLANEX,3333333.0,10,1,9,f,f,related,None,,,,,,,,,,,,0,1,1,1,0,1,1,1,,,,,,,,,8,0,8,0,41.87585929990746,,,,,,,,,,,,,,,,,,,,,,,,,,,,,,,,,,,,,,,,,MVBFDCL,41.86368179996498,41.87585929990746,41.90936989989132,41.90936989989132,41.95940619986504,41.94536879984662,,,,,,,,,,,,,,,,,,,,,,,,,,,,,,,,,,,,,,,,,,,,,,,983509,1,60,0xC000,en,2025-03-19_20h53.13.046,AB,2024.2.4,59.87876942651462,2025-03-19 20h53.21.354040 +0500,
single,dual,1,1,0,PILOT,XPLANEX,3333333.0,10,1,9,f,f,related,None,,,None,0,j,0,0.8489512000232935,None,,,,0,1,1,1,0,1,1,1,,,,,,,,,,,,,,,,,,,,,,,,,,,,,,,,,,,,,,,,,,,,,,,,,,,,,,,,,,,,,41.94775599986315,41.95940619986504,42.959312399849296,42.9450177999679,42.945046399952844,42.94509609998204,None,0,42.94513030000962,42.945147399790585,42.945162899792194,42.959312399849296,42.959312399849296,43.82912609982304,j,0,0.8489512000232935,None,43.829214099794626,43.84273529984057,45.84254859993234,45.82881919993088,,,,,,,,,,,,,,,,,,,,,,,,,983509,1,60,0xC000,en,2025-03-19_20h53.13.046,AB,2024.2.4,59.87876942651462,2025-03-19 20h53.21.354040 +0500,
single,dual,0,0,0,FRESH,XSTALEX,3333333.0,7,7,6,f,f,related,None,,,,,,,,,,,,0,1,1,1,0,2,2,2,0,0,0,0,,,,,,,,,47.842753199860454,,,,,,,,,,,45.82911799987778,45.829344499856234,45.83077849983238,45.84254859993234,46.84282759996131,46.84282759996131,47.842753199860454,47.82878390001133,SXMYPQV,47.83048180001788,47.842753199860454,47.87615439994261,47.87615439994261,47.926229799864814,47.91200639982708,,,,,,,,,,,,,,,,,,,,,,,,,,,,,,,,,,,,,,,,,,,,,,,,,,,,,,,,,,,,,,,,,,,,,983509,1,60,0xC000,en,2025-03-19_20h53.13.046,AB,2024.2.4,59.87876942651462,2025-03-19 20h53.21.354040 +0500,
single,dual,1,0,1,FRESH,XSTALEX,3333333.0,7,7,6,f,f,related,None,,,,,,,,,,,,0,1,1,1,0,2,2,2,1,0,1,0,,,,,,,,,47.926229799864814,,,,,,,,,,,,,,,,,,,LVGCTJP,47.91356409993023,47.926229799864814,47.959267699858174,47.959267699858174,48.009474699851125,47.99548919987865,,,,,,,,,,,,,,,,,,,,,,,,,,,,,,,,,,,,,,,,,,,,,,,,,,,,,,,,,,,,,,,,,,,,,983509,1,60,0xC000,en,2025-03-19_20h53.13.046,AB,2024.2.4,59.87876942651462,2025-03-19 20h53.21.354040 +0500,
single,dual,2,0,2,FRESH,XSTALEX,3333333.0,7,7,6,f,f,related,None,,,,,,,,,,,,0,1,1,1,0,2,2,2,2,0,2,0,,,,,,,,,48.009474699851125,,,,,,,,,,,,,,,,,,,QMFKCJT,47.99705190001987,48.009474699851125,48.04271449986845,48.04271449986845,48.09284619987011,48.07863829983398,,,,,,,,,,,,,,,,,,,,,,,,,,,,,,,,,,,,,,,,,,,,,,,,,,,,,,,,,,,,,,,,,,,,,983509,1,60,0xC000,en,2025-03-19_20h53.13.046,AB,2024.2.4,59.87876942651462,2025-03-19 20h53.21.354040 +0500,
single,dual,3,0,3,FRESH,XSTALEX,3333333.0,7,7,6,f,f,related,None,,,,,,,,,,,,0,1,1,1,0,2,2,2,3,0,3,0,,,,,,,,,48.09284619987011,,,,,,,,,,,,,,,,,,,YSBTHNK,48.08040769980289,48.09284619987011,48.12621189979836,48.12621189979836,48.17615409987047,48.161849399795756,,,,,,,,,,,,,,,,,,,,,,,,,,,,,,,,,,,,,,,,,,,,,,,,,,,,,,,,,,,,,,,,,,,,,983509,1,60,0xC000,en,2025-03-19_20h53.13.046,AB,2024.2.4,59.87876942651462,2025-03-19 20h53.21.354040 +0500,
single,dual,4,0,4,FRESH,XSTALEX,3333333.0,7,7,6,f,f,related,None,,,,,,,,,,,,0,1,1,1,0,2,2,2,4,0,4,0,,,,,,,,,48.17615409987047,,,,,,,,,,,,,,,,,,,TYLJNFB,48.16340869991109,48.17615409987047,48.20951469987631,48.20951469987631,48.25946479989216,48.24556999979541,,,,,,,,,,,,,,,,,,,,,,,,,,,,,,,,,,,,,,,,,,,,,,,,,,,,,,,,,,,,,,,,,,,,,983509,1,60,0xC000,en,2025-03-19_20h53.13.046,AB,2024.2.4,59.87876942651462,2025-03-19 20h53.21.354040 +0500,
single,dual,5,0,5,FRESH,XSTALEX,3333333.0,7,7,6,f,f,related,None,,,,,,,,,,,,0,1,1,1,0,2,2,2,5,0,5,0,,,,,,,,,48.25946479989216,,,,,,,,,,,,,,,,,,,DWTFJKH,48.247163999825716,48.25946479989216,48.29283699998632,48.29283699998632,48.34272009995766,48.32875689980574,,,,,,,,,,,,,,,,,,,,,,,,,,,,,,,,,,,,,,,,,,,,,,,,,,,,,,,,,,,,,,,,,,,,,983509,1,60,0xC000,en,2025-03-19_20h53.13.046,AB,2024.2.4,59.87876942651462,2025-03-19 20h53.21.354040 +0500,
single,dual,0,0,0,FRESH,XSTALEX,3333333.0,7,7,6,f,f,related,None,,,,,,,,,,,,0,1,1,1,0,2,2,2,,,,,0,0,0,0,,,,,48.42615919979289,,,,,,,,,,,,,,,,,,,,,,,,,,48.33079539984465,48.34272009995766,48.37613269989379,48.37613269989379,48.42615919979289,48.412360299844295,PYSZRCX,48.414212399860844,48.495440299855545,,,,,,,,,,,,,,,,,,,,,,,,,,,,,,,,,,,,48.42615919979289,48.45946119981818,48.45946119981818,48.50945319980383,,,,,,,,,,,,,,,,,,,,,983509,1,60,0xC000,en,2025-03-19_20h53.13.046,AB,2024.2.4,59.87876942651462,2025-03-19 20h53.21.354040 +0500,
single,dual,1,0,1,FRESH,XSTALEX,3333333.0,7,7,6,f,f,related,None,,,,,,,,,,,,0,1,1,1,0,2,2,2,,,,,1,0,1,0,,,,,48.50945319980383,,,,,,,,,,,,,,,,,,,,,,,,,,,,,,,,BWLKRFM,48.4969994998537,48.5789124998264,,,,,,,,,,,,,,,,,,,,,,,,,,,,,,,,,,,,48.50945319980383,48.54282069997862,48.54282069997862,48.59281019982882,,,,,,,,,,,,,,,,,,,,,983509,1,60,0xC000,en,2025-03-19_20h53.13.046,AB,2024.2.4,59.87876942651462,2025-03-19 20h53.21.354040 +0500,
single,dual,2,0,2,FRESH,XSTALEX,3333333.0,7,7,6,f,f,related,None,,,,,,,,,,,,0,1,1,1,0,2,2,2,,,,,2,0,2,0,,,,,48.59281019982882,,,,,,,,,,,,,,,,,,,,,,,,,,,,,,,,MRZSWJD,48.58051529992372,48.66215749992989,,,,,,,,,,,,,,,,,,,,,,,,,,,,,,,,,,,,48.59281019982882,48.626080099958926,48.626080099958926,48.67601539986208,,,,,,,,,,,,,,,,,,,,,983509,1,60,0xC000,en,2025-03-19_20h53.13.046,AB,2024.2.4,59.87876942651462,2025-03-19 20h53.21.354040 +0500,
single,dual,3,0,3,FRESH,XSTALEX,3333333.0,7,7,6,f,f,related,None,,,,,,,,,,,,0,1,1,1,0,2,2,2,,,,,3,0,3,0,,,,,48.67601539986208,,,,,,,,,,,,,,,,,,,,,,,,,,,,,,,,RDPJKHG,48.663710499880835,48.74547849991359,,,,,,,,,,,,,,,,,,,,,,,,,,,,,,,,,,,,48.67601539986208,48.709458199795336,48.709458199795336,48.759025499923155,,,,,,,,,,,,,,,,,,,,,983509,1,60,0xC000,en,2025-03-19_20h53.13.046,AB,2024.2.4,59.87876942651462,2025-03-19 20h53.21.354040 +0500,
single,dual,4,0,4,FRESH,XSTALEX,3333333.0,7,7,6,f,f,related,None,,,,,,,,,,,,0,1,1,1,0,2,2,2,,,,,4,0,4,0,,,,,48.759025499923155,,,,,,,,,,,,,,,,,,,,,,,,,,,,,,,,GDQNYFV,48.74702829984017,48.82883629994467,,,,,,,,,,,,,,,,,,,,,,,,,,,,,,,,,,,,48.759025499923155,48.792705399915576,48.792705399915576,48.84255760000087,,,,,,,,,,,,,,,,,,,,,983509,1,60,0xC000,en,2025-03-19_20h53.13.046,AB,2024.2.4,59.87876942651462,2025-03-19 20h53.21.354040 +0500,
single,dual,5,0,5,FRESH,XSTALEX,3333333.0,7,7,6,f,f,related,None,,,,,,,,,,,,0,1,1,1,0,2,2,2,,,,,5,0,5,0,,,,,48.84255760000087,,,,,,,,,,,,,,,,,,,,,,,,,,,,,,,,MBNJHPW,48.830475999973714,48.912107799900696,,,,,,,,,,,,,,,,,,,,,,,,,,,,,,,,,,,,48.84255760000087,48.876240300014615,48.876240300014615,48.92617529979907,,,,,,,,,,,,,,,,,,,,,983509,1,60,0xC000,en,2025-03-19_20h53.13.046,AB,2024.2.4,59.87876942651462,2025-03-19 20h53.21.354040 +0500,
single,dual,0,0,0,FRESH,XSTALEX,3333333.0,7,7,6,f,f,related,None,,,,,,,,,,,,0,1,1,1,0,2,2,2,,,,,,,,,0,0,0,0,49.00919729983434,,,,,,,,,,,,,,,,,,,,,,,,,,,,,,,,,,,48.91582149988972,48.92617529979907,48.95931830001064,48.95931830001064,49.00919729983434,48.99551609996706,MBNJHPW,48.99721249984577,49.00919729983434,49.0428364998661,49.0428364998661,49.0929452998098,49.07878099987283,,,,,,,,,,,,,,,,,,,,,,,,,,,,,,,,,,,,,,,,,,,,,,,983509,1,60,0xC000,en,2025-03-19_20h53.13.046,AB,2024.2.4,59.87876942651462,2025-03-19 20h53.21.354040 +0500,
single,dual,1,0,1,FRESH,XSTALEX,3333333.0,7,7,6,f,f,related,None,,,,,,,,,,,,0,1,1,1,0,2,2,2,,,,,,,,,1,0,1,0,49.0929452998098,,,,,,,,,,,,,,,,,,,,,,,,,,,,,,,,,,,,,,,,,CPDKYBZ,49.08033799985424,49.0929452998098,49.1258834998589,49.1258834998589,49.176238499814644,49.162147499853745,,,,,,,,,,,,,,,,,,,,,,,,,,,,,,,,,,,,,,,,,,,,,,,983509,1,60,0xC000,en,2025-03-19_20h53.13.046,AB,2024.2.4,59.87876942651462,2025-03-19 20h53.21.354040 +0500,
single,dual,2,0,2,FRESH,XSTALEX,3333333.0,7,7,6,f,f,related,None,,,,,,,,,,,,0,1,1,1,0,2,2,2,,,,,,,,,2,0,2,0,49.176238499814644,,,,,,,,,,,,,,,,,,,,,,,,,,,,,,,,,,,,,,,,,JMFBXPQ,49.16372449998744,49.176238499814644,49.20958529994823,49.20958529994823,49.25951069989242,49.245218199910596,,,,,,,,,,,,,,,,,,,,,,,,,,,,,,,,,,,,,,,,,,,,,,,983509,1,60,0xC000,en,2025-03-19_20h53.13.046,AB,2024.2.4,59.87876942651462,2025-03-19 20h53.21.354040 +0500,
single,dual,3,0,3,FRESH,XSTALEX,3333333.0,7,7,6,f,f,related,None,,,,,,,,,,,,0,1,1,1,0,2,2,2,,,,,,,,,3,0,3,0,49.25951069989242,,,,,,,,,,,,,,,,,,,,,,,,,,,,,,,,,,,,,,,,,HYTBWPN,49.24703759979457,49.25951069989242,49.29285789979622,49.29285789979622,49.34280959982425,49.32894469983876,,,,,,,,,,,,,,,,,,,,,,,,,,,,,,,,,,,,,,,,,,,,,,,983509,1,60,0xC000,en,2025-03-19_20h53.13.046,AB,2024.2.4,59.87876942651462,2025-03-19 20h53.21.354040 +0500,
single,dual,4,0,4,FRESH,XSTALEX,3333333.0,7,7,6,f,f,related,None,,,,,,,,,,,,0,1,1,1,0,2,2,2,,,,,,,,,4,0,4,0,49.34280959982425,,,,,,,,,,,,,,,,,,,,,,,,,,,,,,,,,,,,,,,,,TZRFYDN,49.33052909979597,49.34280959982425,49.37621259992011,49.37621259992011,49.426083699800074,49.412132599856704,,,,,,,,,,,,,,,,,,,,,,,,,,,,,,,,,,,,,,,,,,,,,,,983509,1,60,0xC000,en,2025-03-19_20h53.13.046,AB,2024.2.4,59.87876942651462,2025-03-19 20h53.21.354040 +0500,
single,dual,5,0,5,FRESH,XSTALEX,3333333.0,7,7,6,f,f,related,None,,,,,,,,,,,,0,1,1,1,0,2,2,2,,,,,,,,,5,0,5,0,49.426083699800074,,,,,,,,,,,,,,,,,,,,,,,,,,,,,,,,,,,,,,,,,SCJKTDR,49.413683200022206,49.426083699800074,49.459505799924955,49.459505799924955,49.509472999954596,49.4955032998696,,,,,,,,,,,,,,,,,,,,,,,,,,,,,,,,,,,,,,,,,,,,,,,983509,1,60,0xC000,en,2025-03-19_20h53.13.046,AB,2024.2.4,59.87876942651462,2025-03-19 20h53.21.354040 +0500,
single,dual,2,2,0,FRESH,XSTALEX,3333333.0,7,7,6,f,f,related,None,,,None,0,None,0,,,,,,0,1,1,1,0,2,2,2,,,,,,,,,,,,,,,,,,,,,,,,,,,,,,,,,,,,,,,,,,,,,,,,,,,,,,,,,,,,,49.49751919996925,49.509472999954596,50.509618799900636,50.495490100001916,50.495520799886435,50.49554349994287,None,0,50.49557669996284,50.49559419997968,50.495609499979764,50.509618799900636,50.509618799900636,52.495536600006744,None,0,,,52.495613100007176,52.50953399995342,54.50968459993601,54.49569739983417,,,,,,,,,,52.50953399995342,52.50953399995342,,,,,,,,,,,,,,983509,1,60,0xC000,en,2025-03-19_20h53.13.046,AB,2024.2.4,59.87876942651462,2025-03-19 20h53.21.354040 +0500,
single,dual,0,0,0,GRAPE,MUSCLES,4444444.0,7,7,6,j,j,unrelated,None,,,,,,,,,,,,0,1,1,1,0,3,3,3,0,0,0,0,,,,,,,,,56.509586500003934,,,,,,,,,,,54.4960170998238,54.49629629985429,54.49776679999195,54.50968459993601,55.50957189989276,55.50957189989276,56.509586500003934,56.49563379981555,XMCWNGS,56.49733059993014,56.509586500003934,56.54296569991857,56.54296569991857,56.59304680000059,56.578866799827665,,,,,,,,,,,,,,,,,,,,,,,,,,,,,,,,,,,,,,,,,,,,,,,,,,,,,,,,,,,,,,,,,,,,,983509,1,60,0xC000,en,2025-03-19_20h53.13.046,AB,2024.2.4,59.87876942651462,2025-03-19 20h53.21.354040 +0500,
single,dual,1,0,1,GRAPE,MUSCLES,4444444.0,7,7,6,j,j,unrelated,None,,,,,,,,,,,,0,1,1,1,0,3,3,3,1,0,1,0,,,,,,,,,56.59304680000059,,,,,,,,,,,,,,,,,,,PJVHZYX,56.5804164998699,56.59304680000059,56.62599859992042,56.62599859992042,56.67630809987895,56.66236780001782,,,,,,,,,,,,,,,,,,,,,,,,,,,,,,,,,,,,,,,,,,,,,,,,,,,,,,,,,,,,,,,,,,,,,983509,1,60,0xC000,en,2025-03-19_20h53.13.046,AB,2024.2.4,59.87876942651462,2025-03-19 20h53.21.354040 +0500,
single,dual,2,0,2,GRAPE,MUSCLES,4444444.0,7,7,6,j,j,unrelated,None,,,,,,,,,,,,0,1,1,1,0,3,3,3,2,0,2,0,,,,,,,,,56.67630809987895,,,,,,,,,,,,,,,,,,,CMSJGTP,56.66415989981033,56.67630809987895,56.70973129989579,56.70973129989579,56.75914639979601,56.74534389982,,,,,,,,,,,,,,,,,,,,,,,,,,,,,,,,,,,,,,,,,,,,,,,,,,,,,,,,,,,,,,,,,,,,,983509,1,60,0xC000,en,2025-03-19_20h53.13.046,AB,2024.2.4,59.87876942651462,2025-03-19 20h53.21.354040 +0500,
single,dual,3,0,3,GRAPE,MUSCLES,4444444.0,7,7,6,j,j,unrelated,None,,,,,,,,,,,,0,1,1,1,0,3,3,3,3,0,3,0,,,,,,,,,56.75914639979601,,,,,,,,,,,,,,,,,,,DHSPLNT,56.746959399897605,56.75914639979601,56.79288690001704,56.79288690001704,56.84290959988721,56.82890379987657,,,,,,,,,,,,,,,,,,,,,,,,,,,,,,,,,,,,,,,,,,,,,,,,,,,,,,,,,,,,,,,,,,,,,983509,1,60,0xC000,en,2025-03-19_20h53.13.046,AB,2024.2.4,59.87876942651462,2025-03-19 20h53.21.354040 +0500,
single,dual,4,0,4,GRAPE,MUSCLES,4444444.0,7,7,6,j,j,unrelated,None,,,,,,,,,,,,0,1,1,1,0,3,3,3,4,0,4,0,,,,,,,,,56.84290959988721,,,,,,,,,,,,,,,,,,,YVRCNLX,56.83045269991271,56.84290959988721,56.87605519988574,56.87605519988574,56.92625839984976,56.91237589996308,,,,,,,,,,,,,,,,,,,,,,,,,,,,,,,,,,,,,,,,,,,,,,,,,,,,,,,,,,,,,,,,,,,,,983509,1,60,0xC000,en,2025-03-19_20h53.13.046,AB,2024.2.4,59.87876942651462,2025-03-19 20h53.21.354040 +0500,
single,dual,5,0,5,GRAPE,MUSCLES,4444444.0,7,7,6,j,j,unrelated,None,,,,,,,,,,,,0,1,1,1,0,3,3,3,5,0,5,0,,,,,,,,,56.92625839984976,,,,,,,,,,,,,,,,,,,FXQWKLB,56.91392819979228,56.92625839984976,56.95958189992234,56.95958189992234,57.009369199862704,56.995662699919194,,,,,,,,,,,,,,,,,,,,,,,,,,,,,,,,,,,,,,,,,,,,,,,,,,,,,,,,,,,,,,,,,,,,,983509,1,60,0xC000,en,2025-03-19_20h53.13.046,AB,2024.2.4,59.87876942651462,2025-03-19 20h53.21.354040 +0500,
single,dual,0,0,0,GRAPE,MUSCLES,4444444.0,7,7,6,j,j,unrelated,None,,,,,,,,,,,,0,1,1,1,0,3,3,3,,,,,0,0,0,0,,,,,57.09350379998796,,,,,,,,,,,,,,,,,,,,,,,,,,57.00104080000892,57.009369199862704,57.04293320002034,57.04293320002034,57.09350379998796,57.08256689994596,RZCSGQF,57.08670009998605,57.16368129989132,,,,,,,,,,,,,,,,,,,,,,,,,,,,,,,,,,,,57.09350379998796,57.12621979997493,57.12621979997493,57.176349399844185,,,,,,,,,,,,,,,,,,,,,983509,1,60,0xC000,en,2025-03-19_20h53.13.046,AB,2024.2.4,59.87876942651462,2025-03-19 20h53.21.354040 +0500,
single,dual,1,0,1,GRAPE,MUSCLES,4444444.0,7,7,6,j,j,unrelated,None,,,,,,,,,,,,0,1,1,1,0,3,3,3,,,,,1,0,1,0,,,,,57.176349399844185,,,,,,,,,,,,,,,,,,,,,,,,,,,,,,,,FTPDHWK,57.16609999979846,57.24675469985232,,,,,,,,,,,,,,,,,,,,,,,,,,,,,,,,,,,,57.176349399844185,57.20981829985976,57.20981829985976,57.25979799986817,,,,,,,,,,,,,,,,,,,,,983509,1,60,0xC000,en,2025-03-19_20h53.13.046,AB,2024.2.4,59.87876942651462,2025-03-19 20h53.21.354040 +0500,
single,dual,2,0,2,GRAPE,MUSCLES,4444444.0,7,7,6,j,j,unrelated,None,,,,,,,,,,,,0,1,1,1,0,3,3,3,,,,,2,0,2,0,,,,,57.25979799986817,,,,,,,,,,,,,,,,,,,,,,,,,,,,,,,,YGXDZWR,57.249151199823245,57.33036519982852,,,,,,,,,,,,,,,,,,,,,,,,,,,,,,,,,,,,57.25979799986817,57.29294539988041,57.29294539988041,57.343095399904996,,,,,,,,,,,,,,,,,,,,,983509,1,60,0xC000,en,2025-03-19_20h53.13.046,AB,2024.2.4,59.87876942651462,2025-03-19 20h53.21.354040 +0500,
single,dual,3,0,3,GRAPE,MUSCLES,4444444.0,7,7,6,j,j,unrelated,None,,,,,,,,,,,,0,1,1,1,0,3,3,3,,,,,3,0,3,0,,,,,57.343095399904996,,,,,,,,,,,,,,,,,,,,,,,,,,,,,,,,DBSFJZG,57.33273629983887,57.41339999996126,,,,,,,,,,,,,,,,,,,,,,,,,,,,,,,,,,,,57.343095399904996,57.37647639983334,57.37647639983334,57.426388799911365,,,,,,,,,,,,,,,,,,,,,983509,1,60,0xC000,en,2025-03-19_20h53.13.046,AB,2024.2.4,59.87876942651462,2025-03-19 20h53.21.354040 +0500,
single,dual,4,0,4,GRAPE,MUSCLES,4444444.0,7,7,6,j,j,unrelated,None,,,,,,,,,,,,0,1,1,1,0,3,3,3,,,,,4,0,4,0,,,,,57.426388799911365,,,,,,,,,,,,,,,,,,,,,,,,,,,,,,,,WNSVHXM,57.415788299869746,57.49579369998537,,,,,,,,,,,,,,,,,,,,,,,,,,,,,,,,,,,,57.426388799911365,57.45950809982605,57.45950809982605,57.5096594998613,,,,,,,,,,,,,,,,,,,,,983509,1,60,0xC000,en,2025-03-19_20h53.13.046,AB,2024.2.4,59.87876942651462,2025-03-19 20h53.21.354040 +0500,
single,dual,5,0,5,GRAPE,MUSCLES,4444444.0,7,7,6,j,j,unrelated,None,,,,,,,,,,,,0,1,1,1,0,3,3,3,,,,,5,0,5,0,,,,,57.5096594998613,,,,,,,,,,,,,,,,,,,,,,,,,,,,,,,,JQGDLFS,57.497591199819,57.57895479979925,,,,,,,,,,,,,,,,,,,,,,,,,,,,,,,,,,,,57.5096594998613,57.5430258999113,57.5430258999113,57.59290439984761,,,,,,,,,,,,,,,,,,,,,983509,1,60,0xC000,en,2025-03-19_20h53.13.046,AB,2024.2.4,59.87876942651462,2025-03-19 20h53.21.354040 +0500,
single,dual,0,0,0,GRAPE,MUSCLES,4444444.0,7,7,6,j,j,unrelated,None,,,,,,,,,,,,0,1,1,1,0,3,3,3,,,,,,,,,0,0,0,0,57.67627629986964,,,,,,,,,,,,,,,,,,,,,,,,,,,,,,,,,,,57.582423500018194,57.59290439984761,57.62628289987333,57.62628289987333,57.67627629986964,57.66240009991452,JQGDLFS,57.66410869988613,57.67627629986964,57.70960699999705,57.70960699999705,57.75922849983908,57.74568249983713,,,,,,,,,,,,,,,,,,,,,,,,,,,,,,,,,,,,,,,,,,,,,,,983509,1,60,0xC000,en,2025-03-19_20h53.13.046,AB,2024.2.4,59.87876942651462,2025-03-19 20h53.21.354040 +0500,
single,dual,1,0,1,GRAPE,MUSCLES,4444444.0,7,7,6,j,j,unrelated,None,,,,,,,,,,,,0,1,1,1,0,3,3,3,,,,,,,,,1,0,1,0,57.75922849983908,,,,,,,,,,,,,,,,,,,,,,,,,,,,,,,,,,,,,,,,,ZHQBKPM,57.74726009997539,57.75922849983908,57.79300359985791,57.79300359985791,57.84298669989221,57.82904059998691,,,,,,,,,,,,,,,,,,,,,,,,,,,,,,,,,,,,,,,,,,,,,,,983509,1,60,0xC000,en,2025-03-19_20h53.13.046,AB,2024.2.4,59.87876942651462,2025-03-19 20h53.21.354040 +0500,
single,dual,2,0,2,GRAPE,MUSCLES,4444444.0,7,7,6,j,j,unrelated,None,,,,,,,,,,,,0,1,1,1,0,3,3,3,,,,,,,,,2,0,2,0,57.84298669989221,,,,,,,,,,,,,,,,,,,,,,,,,,,,,,,,,,,,,,,,,RMFJPSL,57.83080539992079,57.84298669989221,57.87614890001714,57.87614890001714,57.926026499830186,57.91231399984099,,,,,,,,,,,,,,,,,,,,,,,,,,,,,,,,,,,,,,,,,,,,,,,983509,1,60,0xC000,en,2025-03-19_20h53.13.046,AB,2024.2.4,59.87876942651462,2025-03-19 20h53.21.354040 +0500,
single,dual,3,0,3,GRAPE,MUSCLES,4444444.0,7,7,6,j,j,unrelated,None,,,,,,,,,,,,0,1,1,1,0,3,3,3,,,,,,,,,3,0,3,0,57.926026499830186,,,,,,,,,,,,,,,,,,,,,,,,,,,,,,,,,,,,,,,,,FBDXKMS,57.91389560000971,57.926026499830186,57.95966109982692,57.95966109982692,58.0097554998938,57.99550889991224,,,,,,,,,,,,,,,,,,,,,,,,,,,,,,,,,,,,,,,,,,,,,,,983509,1,60,0xC000,en,2025-03-19_20h53.13.046,AB,2024.2.4,59.87876942651462,2025-03-19 20h53.21.354040 +0500,
single,dual,4,0,4,GRAPE,MUSCLES,4444444.0,7,7,6,j,j,unrelated,None,,,,,,,,,,,,0,1,1,1,0,3,3,3,,,,,,,,,4,0,4,0,58.0097554998938,,,,,,,,,,,,,,,,,,,,,,,,,,,,,,,,,,,,,,,,,LNKVDFR,57.997106299968436,58.0097554998938,58.0427078998182,58.0427078998182,58.09294319991022,58.079152499791235,,,,,,,,,,,,,,,,,,,,,,,,,,,,,,,,,,,,,,,,,,,,,,,983509,1,60,0xC000,en,2025-03-19_20h53.13.046,AB,2024.2.4,59.87876942651462,2025-03-19 20h53.21.354040 +0500,
single,dual,5,0,5,GRAPE,MUSCLES,4444444.0,7,7,6,j,j,unrelated,None,,,,,,,,,,,,0,1,1,1,0,3,3,3,,,,,,,,,5,0,5,0,58.09294319991022,,,,,,,,,,,,,,,,,,,,,,,,,,,,,,,,,,,,,,,,,TJXRKMN,58.0807370999828,58.09294319991022,58.126434799982235,58.126434799982235,58.17634020000696,58.162080199923366,,,,,,,,,,,,,,,,,,,,,,,,,,,,,,,,,,,,,,,,,,,,,,,983509,1,60,0xC000,en,2025-03-19_20h53.13.046,AB,2024.2.4,59.87876942651462,2025-03-19 20h53.21.354040 +0500,
single,dual,3,3,0,GRAPE,MUSCLES,4444444.0,7,7,6,j,j,unrelated,None,,,None,0,j,1,0.5926822000183165,None,,,,0,1,1,1,0,3,3,3,,,,,,,,,,,,,,,,,,,,,,,,,,,,,,,,,,,,,,,,,,,,,,,,,,,,,,,,,,,,,58.16413069982082,58.17634020000696,59.17606520000845,59.16237699985504,59.16240439983085,59.162426699884236,None,0,59.1624603997916,59.16247779992409,59.16249359981157,59.17606520000845,59.17606520000845,59.79572199983522,j,1,0.5926822000183165,None,59.79581939987838,59.80952569982037,61.8097455999814,61.795813999837264,,,,,,,,,,,,,,,,,,,,,,,,,983509,1,60,0xC000,en,2025-03-19_20h53.13.046,AB,2024.2.4,59.87876942651462,2025-03-19 20h53.21.354040 +0500,
single,dual,1,1,0,,,,,,,,,,None,,,,,,,,,None,,,0,1,1,1,,,,,,,,,,,,,,,,,,,,,,,,,,,,,,,,,,,,,,,,,,,,,,,,,,,,,,,,,,,,,,,,,,,,,,,,,,,,,,,,,,,,,,,,,,,61.79723809985444,61.8097455999814,61.8097455999814,62.79570159991272,None,,,62.95898179989308,62.95898179989308,,,,,,,,,,,,983509,1,60,0xC000,en,2025-03-19_20h53.13.046,AB,2024.2.4,59.87876942651462,2025-03-19 20h53.21.354040 +0500,
single,dual,0,0,0,WHEEL,XXHATEX,5555555.0,10,1,9,f,j,unrelated,None,,,,,,,,,,,,0,2,2,2,0,0,0,0,0,0,0,0,,,,,,,,,64.95976019999944,,62.795842999825254,62.79611999983899,62.79616029979661,,,62.7961921999231,None,,,62.9483405998908,62.94867559988052,62.95020949980244,62.95898179989308,63.95971610001288,63.95971610001288,64.95976019999944,64.94546699989587,CLVGRTQ,64.94715319992974,64.95976019999944,64.99276899988763,64.99276899988763,65.04306870000437,65.0292022000067,,,,,,,,,,,,,,,,,,,,,,,,,,,,,,,,,,,,,,,,,,,,,,,,,,,,,,,,,,,,,,,,,,,,,983509,1,60,0xC000,en,2025-03-19_20h53.13.046,AB,2024.2.4,59.87876942651462,2025-03-19 20h53.21.354040 +0500,
single,dual,1,0,1,WHEEL,XXHATEX,5555555.0,10,1,9,f,j,unrelated,None,,,,,,,,,,,,0,2,2,2,0,0,0,0,1,0,1,0,,,,,,,,,65.04306870000437,,,,,,,,,,,,,,,,,,,ZDMNKBT,65.03076789993793,65.04306870000437,65.07644939981401,65.07644939981401,65.12632139981724,65.11252819979563,,,,,,,,,,,,,,,,,,,,,,,,,,,,,,,,,,,,,,,,,,,,,,,,,,,,,,,,,,,,,,,,,,,,,983509,1,60,0xC000,en,2025-03-19_20h53.13.046,AB,2024.2.4,59.87876942651462,2025-03-19 20h53.21.354040 +0500,
single,dual,2,0,2,WHEEL,XXHATEX,5555555.0,10,1,9,f,j,unrelated,None,,,,,,,,,,,,0,2,2,2,0,0,0,0,2,0,2,0,,,,,,,,,65.12632139981724,,,,,,,,,,,,,,,,,,,PBCJGFD,65.11408809991553,65.12632139981724,65.15982069983147,65.15982069983147,65.20972009981051,65.19580139988102,,,,,,,,,,,,,,,,,,,,,,,,,,,,,,,,,,,,,,,,,,,,,,,,,,,,,,,,,,,,,,,,,,,,,983509,1,60,0xC000,en,2025-03-19_20h53.13.046,AB,2024.2.4,59.87876942651462,2025-03-19 20h53.21.354040 +0500,
single,dual,3,0,3,WHEEL,XXHATEX,5555555.0,10,1,9,f,j,unrelated,None,,,,,,,,,,,,0,2,2,2,0,0,0,0,3,0,3,0,,,,,,,,,65.20972009981051,,,,,,,,,,,,,,,,,,,LMBQJSX,65.19756269990467,65.20972009981051,65.24299279996194,65.24299279996194,65.29314919980243,65.27912269998342,,,,,,,,,,,,,,,,,,,,,,,,,,,,,,,,,,,,,,,,,,,,,,,,,,,,,,,,,,,,,,,,,,,,,983509,1,60,0xC000,en,2025-03-19_20h53.13.046,AB,2024.2.4,59.87876942651462,2025-03-19 20h53.21.354040 +0500,
single,dual,4,0,4,WHEEL,XXHATEX,5555555.0,10,1,9,f,j,unrelated,None,,,,,,,,,,,,0,2,2,2,0,0,0,0,4,0,4,0,,,,,,,,,65.29314919980243,,,,,,,,,,,,,,,,,,,GJKQFTX,65.28069479996338,65.29314919980243,65.32635400001891,65.32635400001891,65.3764751998242,65.36240639979951,,,,,,,,,,,,,,,,,,,,,,,,,,,,,,,,,,,,,,,,,,,,,,,,,,,,,,,,,,,,,,,,,,,,,983509,1,60,0xC000,en,2025-03-19_20h53.13.046,AB,2024.2.4,59.87876942651462,2025-03-19 20h53.21.354040 +0500,
single,dual,5,0,5,WHEEL,XXHATEX,5555555.0,10,1,9,f,j,unrelated,None,,,,,,,,,,,,0,2,2,2,0,0,0,0,5,0,5,0,,,,,,,,,65.3764751998242,,,,,,,,,,,,,,,,,,,QTMDBHG,65.36397979990579,65.3764751998242,65.40985849988647,65.40985849988647,65.45976729993708,65.44546739989892,,,,,,,,,,,,,,,,,,,,,,,,,,,,,,,,,,,,,,,,,,,,,,,,,,,,,,,,,,,,,,,,,,,,,983509,1,60,0xC000,en,2025-03-19_20h53.13.046,AB,2024.2.4,59.87876942651462,2025-03-19 20h53.21.354040 +0500,
single,dual,6,0,6,WHEEL,XXHATEX,5555555.0,10,1,9,f,j,unrelated,None,,,,,,,,,,,,0,2,2,2,0,0,0,0,6,0,6,0,,,,,,,,,65.45976729993708,,,,,,,,,,,,,,,,,,,KBYMHRZ,65.44703149981797,65.45976729993708,65.49303399981,65.49303399981,65.54309099982493,65.52905589994043,,,,,,,,,,,,,,,,,,,,,,,,,,,,,,,,,,,,,,,,,,,,,,,,,,,,,,,,,,,,,,,,,,,,,983509,1,60,0xC000,en,2025-03-19_20h53.13.046,AB,2024.2.4,59.87876942651462,2025-03-19 20h53.21.354040 +0500,
single,dual,7,0,7,WHEEL,XXHATEX,5555555.0,10,1,9,f,j,unrelated,None,,,,,,,,,,,,0,2,2,2,0,0,0,0,7,0,7,0,,,,,,,,,65.54309099982493,,,,,,,,,,,,,,,,,,,PKNYQLG,65.53063049982302,65.54309099982493,65.57649279991165,65.57649279991165,65.62640889990143,65.61219239979982,,,,,,,,,,,,,,,,,,,,,,,,,,,,,,,,,,,,,,,,,,,,,,,,,,,,,,,,,,,,,,,,,,,,,983509,1,60,0xC000,en,2025-03-19_20h53.13.046,AB,2024.2.4,59.87876942651462,2025-03-19 20h53.21.354040 +0500,
single,dual,8,0,8,WHEEL,XXHATEX,5555555.0,10,1,9,f,j,unrelated,None,,,,,,,,,,,,0,2,2,2,0,0,0,0,8,0,8,0,,,,,,,,,65.62640889990143,,,,,,,,,,,,,,,,,,,PXBJQCV,65.61393479979597,65.62640889990143,65.65973949991167,65.65973949991167,65.70957469986752,65.69583490001969,,,,,,,,,,,,,,,,,,,,,,,,,,,,,,,,,,,,,,,,,,,,,,,,,,,,,,,,,,,,,,,,,,,,,983509,1,60,0xC000,en,2025-03-19_20h53.13.046,AB,2024.2.4,59.87876942651462,2025-03-19 20h53.21.354040 +0500,
single,dual,0,0,0,WHEEL,XXHATEX,5555555.0,10,1,9,f,j,unrelated,None,,,,,,,,,,,,0,2,2,2,0,0,0,0,,,,,0,0,0,0,,,,,65.79293939983472,,,,,,,,,,,,,,,,,,,,,,,,,,65.70075499988161,65.70957469986752,65.74310539988801,65.74310539988801,65.79293939983472,65.77915650000796,,65.78084019990638,65.78086830000393,,,,,,,,,,,,,,,,,,,,,,,,,,,,,,,,,,,,,,,,,,,,,,,,,,,,,,,,,,,,983509,1,60,0xC000,en,2025-03-19_20h53.13.046,AB,2024.2.4,59.87876942651462,2025-03-19 20h53.21.354040 +0500,
single,dual,0,0,0,WHEEL,XXHATEX,5555555.0,10,1,9,f,j,unrelated,None,,,,,,,,,,,,0,2,2,2,0,0,0,0,,,,,,,,,0,0,0,0,65.87647469993681,,,,,,,,,,,,,,,,,,,,,,,,,,,,,,,,,,,65.78418139996938,65.79293939983472,65.82620449992828,65.82620449992828,65.87647469993681,65.86239179992117,RYGNLTW,65.86408079997636,65.87647469993681,65.90962439985014,65.90962439985014,65.95950449979864,65.94581429986283,,,,,,,,,,,,,,,,,,,,,,,,,,,,,,,,,,,,,,,,,,,,,,,983509,1,60,0xC000,en,2025-03-19_20h53.13.046,AB,2024.2.4,59.87876942651462,2025-03-19 20h53.21.354040 +0500,
single,dual,1,0,1,WHEEL,XXHATEX,5555555.0,10,1,9,f,j,unrelated,None,,,,,,,,,,,,0,2,2,2,0,0,0,0,,,,,,,,,1,0,1,0,65.95950449979864,,,,,,,,,,,,,,,,,,,,,,,,,,,,,,,,,,,,,,,,,RVMTJKW,65.94744399981573,65.95950449979864,65.9931506998837,65.9931506998837,66.04320259997621,66.02902839984745,,,,,,,,,,,,,,,,,,,,,,,,,,,,,,,,,,,,,,,,,,,,,,,983509,1,60,0xC000,en,2025-03-19_20h53.13.046,AB,2024.2.4,59.87876942651462,2025-03-19 20h53.21.354040 +0500,
single,dual,2,0,2,WHEEL,XXHATEX,5555555.0,10,1,9,f,j,unrelated,None,,,,,,,,,,,,0,2,2,2,0,0,0,0,,,,,,,,,2,0,2,0,66.04320259997621,,,,,,,,,,,,,,,,,,,,,,,,,,,,,,,,,,,,,,,,,ZRHXLCM,66.03059550002217,66.04320259997621,66.07617349992506,66.07617349992506,66.12649169983342,66.11237779981457,,,,,,,,,,,,,,,,,,,,,,,,,,,,,,,,,,,,,,,,,,,,,,,983509,1,60,0xC000,en,2025-03-19_20h53.13.046,AB,2024.2.4,59.87876942651462,2025-03-19 20h53.21.354040 +0500,
single,dual,3,0,3,WHEEL,XXHATEX,5555555.0,10,1,9,f,j,unrelated,None,,,,,,,,,,,,0,2,2,2,0,0,0,0,,,,,,,,,3,0,3,0,66.12649169983342,,,,,,,,,,,,,,,,,,,,,,,,,,,,,,,,,,,,,,,,,YLTNGXR,66.1140701000113,66.12649169983342,66.15988179994747,66.15988179994747,66.20981909986585,66.19551969994791,,,,,,,,,,,,,,,,,,,,,,,,,,,,,,,,,,,,,,,,,,,,,,,983509,1,60,0xC000,en,2025-03-19_20h53.13.046,AB,2024.2.4,59.87876942651462,2025-03-19 20h53.21.354040 +0500,
single,dual,4,0,4,WHEEL,XXHATEX,5555555.0,10,1,9,f,j,unrelated,None,,,,,,,,,,,,0,2,2,2,0,0,0,0,,,,,,,,,4,0,4,0,66.20981909986585,,,,,,,,,,,,,,,,,,,,,,,,,,,,,,,,,,,,,,,,,ZPDGBNH,66.1973250999581,66.20981909986585,66.24300879985094,66.24300879985094,66.29312199982814,66.27918690000661,,,,,,,,,,,,,,,,,,,,,,,,,,,,,,,,,,,,,,,,,,,,,,,983509,1,60,0xC000,en,2025-03-19_20h53.13.046,AB,2024.2.4,59.87876942651462,2025-03-19 20h53.21.354040 +0500,
single,dual,5,0,5,WHEEL,XXHATEX,5555555.0,10,1,9,f,j,unrelated,None,,,,,,,,,,,,0,2,2,2,0,0,0,0,,,,,,,,,5,0,5,0,66.29312199982814,,,,,,,,,,,,,,,,,,,,,,,,,,,,,,,,,,,,,,,,,CVWXDLY,66.28078019991517,66.29312199982814,66.32651019981131,66.32651019981131,66.37640749989077,66.362423799932,,,,,,,,,,,,,,,,,,,,,,,,,,,,,,,,,,,,,,,,,,,,,,,983509,1,60,0xC000,en,2025-03-19_20h53.13.046,AB,2024.2.4,59.87876942651462,2025-03-19 20h53.21.354040 +0500,
single,dual,6,0,6,WHEEL,XXHATEX,5555555.0,10,1,9,f,j,unrelated,None,,,,,,,,,,,,0,2,2,2,0,0,0,0,,,,,,,,,6,0,6,0,66.37640749989077,,,,,,,,,,,,,,,,,,,,,,,,,,,,,,,,,,,,,,,,,KQLCFGP,66.36399739980698,66.37640749989077,66.4097766999621,66.4097766999621,66.45979069988243,66.44586599990726,,,,,,,,,,,,,,,,,,,,,,,,,,,,,,,,,,,,,,,,,,,,,,,983509,1,60,0xC000,en,2025-03-19_20h53.13.046,AB,2024.2.4,59.87876942651462,2025-03-19 20h53.21.354040 +0500,
single,dual,7,0,7,WHEEL,XXHATEX,5555555.0,10,1,9,f,j,unrelated,None,,,,,,,,,,,,0,2,2,2,0,0,0,0,,,,,,,,,7,0,7,0,66.45979069988243,,,,,,,,,,,,,,,,,,,,,,,,,,,,,,,,,,,,,,,,,YLMRKDZ,66.44743259996176,66.45979069988243,66.4930761998985,66.4930761998985,66.54294790001586,66.5291503998451,,,,,,,,,,,,,,,,,,,,,,,,,,,,,,,,,,,,,,,,,,,,,,,983509,1,60,0xC000,en,2025-03-19_20h53.13.046,AB,2024.2.4,59.87876942651462,2025-03-19 20h53.21.354040 +0500,
single,dual,8,0,8,WHEEL,XXHATEX,5555555.0,10,1,9,f,j,unrelated,None,,,,,,,,,,,,0,2,2,2,0,0,0,0,,,,,,,,,8,0,8,0,66.54294790001586,,,,,,,,,,,,,,,,,,,,,,,,,,,,,,,,,,,,,,,,,PMBKGSL,66.53072919999249,66.54294790001586,66.57643449981697,66.57643449981697,66.62646029982716,66.61241619987413,,,,,,,,,,,,,,,,,,,,,,,,,,,,,,,,,,,,,,,,,,,,,,,983509,1,60,0xC000,en,2025-03-19_20h53.13.046,AB,2024.2.4,59.87876942651462,2025-03-19 20h53.21.354040 +0500,
single,dual,0,0,0,WHEEL,XXHATEX,5555555.0,10,1,9,f,j,unrelated,None,,,None,0,j,1,0.7815735000185668,None,,,,0,2,2,2,0,0,0,0,,,,,,,,,,,,,,,,,,,,,,,,,,,,,,,,,,,,,,,,,,,,,,,,,,,,,,,,,,,,,66.61481699999422,66.62646029982716,67.6264332998544,67.61259229993448,67.61261999979615,67.61265659984201,None,0,67.6126933998894,67.61271069990471,67.61272689979523,67.6264332998544,67.6264332998544,68.42936209985055,j,1,0.7815735000185668,None,68.42944949981757,68.44309899979271,70.44330059993081,70.42905919998884,,,,,,,,,,,,,,,,,,,,,,,,,983509,1,60,0xC000,en,2025-03-19_20h53.13.046,AB,2024.2.4,59.87876942651462,2025-03-19 20h53.21.354040 +0500,
single,dual,0,0,0,READ,XWRITEX,7777777.0,10,7,3,f,f,related,None,,,,,,,,,,,,0,2,2,2,0,1,1,1,0,0,0,0,,,,,,,,,72.44317929982208,,,,,,,,,,,70.42937049991451,70.42961109988391,70.43089399999008,70.44330059993081,71.44318760000169,71.44318760000169,72.44317929982208,72.42912999982946,YQRBJDG,72.43099039979279,72.44317929982208,72.47651479998603,72.47651479998603,72.52638639998622,72.51260889996774,,,,,,,,,,,,,,,,,,,,,,,,,,,,,,,,,,,,,,,,,,,,,,,,,,,,,,,,,,,,,,,,,,,,,983509,1,60,0xC000,en,2025-03-19_20h53.13.046,AB,2024.2.4,59.87876942651462,2025-03-19 20h53.21.354040 +0500,
single,dual,1,0,1,READ,XWRITEX,7777777.0,10,7,3,f,f,related,None,,,,,,,,,,,,0,2,2,2,0,1,1,1,1,0,1,0,,,,,,,,,72.52638639998622,,,,,,,,,,,,,,,,,,,NFRVWLQ,72.51419209991582,72.52638639998622,72.55984539981,72.55984539981,72.60992929991335,72.59588049980812,,,,,,,,,,,,,,,,,,,,,,,,,,,,,,,,,,,,,,,,,,,,,,,,,,,,,,,,,,,,,,,,,,,,,983509,1,60,0xC000,en,2025-03-19_20h53.13.046,AB,2024.2.4,59.87876942651462,2025-03-19 20h53.21.354040 +0500,
single,dual,2,0,2,READ,XWRITEX,7777777.0,10,7,3,f,f,related,None,,,,,,,,,,,,0,2,2,2,0,1,1,1,2,0,2,0,,,,,,,,,72.60992929991335,,,,,,,,,,,,,,,,,,,RDGQTWK,72.59756059991196,72.60992929991335,72.64307629992254,72.64307629992254,72.69297099998221,72.67923209979199,,,,,,,,,,,,,,,,,,,,,,,,,,,,,,,,,,,,,,,,,,,,,,,,,,,,,,,,,,,,,,,,,,,,,983509,1,60,0xC000,en,2025-03-19_20h53.13.046,AB,2024.2.4,59.87876942651462,2025-03-19 20h53.21.354040 +0500,
single,dual,3,0,3,READ,XWRITEX,7777777.0,10,7,3,f,f,related,None,,,,,,,,,,,,0,2,2,2,0,1,1,1,3,0,3,0,,,,,,,,,72.69297099998221,,,,,,,,,,,,,,,,,,,DLZRPWF,72.68081199983135,72.69297099998221,72.7265443999786,72.7265443999786,72.7765819998458,72.76204609987326,,,,,,,,,,,,,,,,,,,,,,,,,,,,,,,,,,,,,,,,,,,,,,,,,,,,,,,,,,,,,,,,,,,,,983509,1,60,0xC000,en,2025-03-19_20h53.13.046,AB,2024.2.4,59.87876942651462,2025-03-19 20h53.21.354040 +0500,
single,dual,4,0,4,READ,XWRITEX,7777777.0,10,7,3,f,f,related,None,,,,,,,,,,,,0,2,2,2,0,1,1,1,4,0,4,0,,,,,,,,,72.7765819998458,,,,,,,,,,,,,,,,,,,HKDCFLY,72.76367069990374,72.7765819998458,72.80971329985186,72.80971329985186,72.85962909995578,72.84598899981938,,,,,,,,,,,,,,,,,,,,,,,,,,,,,,,,,,,,,,,,,,,,,,,,,,,,,,,,,,,,,,,,,,,,,983509,1,60,0xC000,en,2025-03-19_20h53.13.046,AB,2024.2.4,59.87876942651462,2025-03-19 20h53.21.354040 +0500,
single,dual,5,0,5,READ,XWRITEX,7777777.0,10,7,3,f,f,related,None,,,,,,,,,,,,0,2,2,2,0,1,1,1,5,0,5,0,,,,,,,,,72.85962909995578,,,,,,,,,,,,,,,,,,,VMDCPJW,72.84778319997713,72.85962909995578,72.89323729998432,72.89323729998432,72.94330859999172,72.92905869986862,,,,,,,,,,,,,,,,,,,,,,,,,,,,,,,,,,,,,,,,,,,,,,,,,,,,,,,,,,,,,,,,,,,,,983509,1,60,0xC000,en,2025-03-19_20h53.13.046,AB,2024.2.4,59.87876942651462,2025-03-19 20h53.21.354040 +0500,
single,dual,6,0,6,READ,XWRITEX,7777777.0,10,7,3,f,f,related,None,,,,,,,,,,,,0,2,2,2,0,1,1,1,6,0,6,0,,,,,,,,,72.94330859999172,,,,,,,,,,,,,,,,,,,VSZQKNF,72.93063109996729,72.94330859999172,72.9762563998811,72.9762563998811,73.0265703999903,73.01254669995978,,,,,,,,,,,,,,,,,,,,,,,,,,,,,,,,,,,,,,,,,,,,,,,,,,,,,,,,,,,,,,,,,,,,,983509,1,60,0xC000,en,2025-03-19_20h53.13.046,AB,2024.2.4,59.87876942651462,2025-03-19 20h53.21.354040 +0500,
single,dual,7,0,7,READ,XWRITEX,7777777.0,10,7,3,f,f,related,None,,,,,,,,,,,,0,2,2,2,0,1,1,1,7,0,7,0,,,,,,,,,73.0265703999903,,,,,,,,,,,,,,,,,,,LFJDWVM,73.01413769996725,73.0265703999903,73.05995879997499,73.05995879997499,73.10990609996952,73.095611799974,,,,,,,,,,,,,,,,,,,,,,,,,,,,,,,,,,,,,,,,,,,,,,,,,,,,,,,,,,,,,,,,,,,,,983509,1,60,0xC000,en,2025-03-19_20h53.13.046,AB,2024.2.4,59.87876942651462,2025-03-19 20h53.21.354040 +0500,
single,dual,8,0,8,READ,XWRITEX,7777777.0,10,7,3,f,f,related,None,,,,,,,,,,,,0,2,2,2,0,1,1,1,8,0,8,0,,,,,,,,,73.10990609996952,,,,,,,,,,,,,,,,,,,SQWBDHZ,73.09722529980354,73.10990609996952,73.1432015998289,73.1432015998289,73.19304279983044,73.17922699986957,,,,,,,,,,,,,,,,,,,,,,,,,,,,,,,,,,,,,,,,,,,,,,,,,,,,,,,,,,,,,,,,,,,,,983509,1,60,0xC000,en,2025-03-19_20h53.13.046,AB,2024.2.4,59.87876942651462,2025-03-19 20h53.21.354040 +0500,
single,dual,0,0,0,READ,XWRITEX,7777777.0,10,7,3,f,f,related,None,,,,,,,,,,,,0,2,2,2,0,1,1,1,,,,,0,0,0,0,,,,,73.27645799983293,,,,,,,,,,,,,,,,,,,,,,,,,,73.18470609979704,73.19304279983044,73.22659279988147,73.22659279988147,73.27645799983293,73.26250919979066,CNFBSWM,73.264247499872,73.34591679996811,,,,,,,,,,,,,,,,,,,,,,,,,,,,,,,,,,,,73.27645799983293,73.30987889994867,73.30987889994867,73.35988369979896,,,,,,,,,,,,,,,,,,,,,983509,1,60,0xC000,en,2025-03-19_20h53.13.046,AB,2024.2.4,59.87876942651462,2025-03-19 20h53.21.354040 +0500,
single,dual,1,0,1,READ,XWRITEX,7777777.0,10,7,3,f,f,related,None,,,,,,,,,,,,0,2,2,2,0,1,1,1,,,,,1,0,1,0,,,,,73.35988369979896,,,,,,,,,,,,,,,,,,,,,,,,,,,,,,,,BYZWSFT,73.34749919991009,73.42927819979377,,,,,,,,,,,,,,,,,,,,,,,,,,,,,,,,,,,,73.35988369979896,73.39315439993516,73.39315439993516,73.44328080001287,,,,,,,,,,,,,,,,,,,,,983509,1,60,0xC000,en,2025-03-19_20h53.13.046,AB,2024.2.4,59.87876942651462,2025-03-19 20h53.21.354040 +0500,
single,dual,2,0,2,READ,XWRITEX,7777777.0,10,7,3,f,f,related,None,,,,,,,,,,,,0,2,2,2,0,1,1,1,,,,,2,0,2,0,,,,,73.44328080001287,,,,,,,,,,,,,,,,,,,,,,,,,,,,,,,,LRGQYMN,73.43094219989143,73.51270129997283,,,,,,,,,,,,,,,,,,,,,,,,,,,,,,,,,,,,73.44328080001287,73.47647739993408,73.47647739993408,73.52655710000545,,,,,,,,,,,,,,,,,,,,,983509,1,60,0xC000,en,2025-03-19_20h53.13.046,AB,2024.2.4,59.87876942651462,2025-03-19 20h53.21.354040 +0500,
single,dual,3,0,3,READ,XWRITEX,7777777.0,10,7,3,f,f,related,None,,,,,,,,,,,,0,2,2,2,0,1,1,1,,,,,3,0,3,0,,,,,73.52655710000545,,,,,,,,,,,,,,,,,,,,,,,,,,,,,,,,VZNXSQF,73.51438039983623,73.59583599981852,,,,,,,,,,,,,,,,,,,,,,,,,,,,,,,,,,,,73.52655710000545,73.55987869994715,73.55987869994715,73.61010099994019,,,,,,,,,,,,,,,,,,,,,983509,1,60,0xC000,en,2025-03-19_20h53.13.046,AB,2024.2.4,59.87876942651462,2025-03-19 20h53.21.354040 +0500,
single,dual,4,0,4,READ,XWRITEX,7777777.0,10,7,3,f,f,related,None,,,,,,,,,,,,0,2,2,2,0,1,1,1,,,,,4,0,4,0,,,,,73.61010099994019,,,,,,,,,,,,,,,,,,,,,,,,,,,,,,,,WMRQDYT,73.59740839991719,73.67927760002203,,,,,,,,,,,,,,,,,,,,,,,,,,,,,,,,,,,,73.61010099994019,73.6432274999097,73.6432274999097,73.69308549980633,,,,,,,,,,,,,,,,,,,,,983509,1,60,0xC000,en,2025-03-19_20h53.13.046,AB,2024.2.4,59.87876942651462,2025-03-19 20h53.21.354040 +0500,
single,dual,5,0,5,READ,XWRITEX,7777777.0,10,7,3,f,f,related,None,,,,,,,,,,,,0,2,2,2,0,1,1,1,,,,,5,0,5,0,,,,,73.69308549980633,,,,,,,,,,,,,,,,,,,,,,,,,,,,,,,,CQNDRYW,73.68116579996422,73.76201760000549,,,,,,,,,,,,,,,,,,,,,,,,,,,,,,,,,,,,73.69308549980633,73.72662989981472,73.72662989981472,73.77656669984572,,,,,,,,,,,,,,,,,,,,,983509,1,60,0xC000,en,2025-03-19_20h53.13.046,AB,2024.2.4,59.87876942651462,2025-03-19 20h53.21.354040 +0500,
single,dual,0,0,0,READ,XWRITEX,7777777.0,10,7,3,f,f,related,None,,,,,,,,,,,,0,2,2,2,0,1,1,1,,,,,,,,,0,0,0,0,73.85962919984013,,,,,,,,,,,,,,,,,,,,,,,,,,,,,,,,,,,73.765533400001,73.77656669984572,73.80974129983224,73.80974129983224,73.85962919984013,73.84610399999656,CQNDRYW,73.847821299918,73.85962919984013,73.89303749985993,73.89303749985993,73.94338049995713,73.92921400000341,,,,,,,,,,,,,,,,,,,,,,,,,,,,,,,,,,,,,,,,,,,,,,,983509,1,60,0xC000,en,2025-03-19_20h53.13.046,AB,2024.2.4,59.87876942651462,2025-03-19 20h53.21.354040 +0500,
single,dual,1,0,1,READ,XWRITEX,7777777.0,10,7,3,f,f,related,None,,,,,,,,,,,,0,2,2,2,0,1,1,1,,,,,,,,,1,0,1,0,73.94338049995713,,,,,,,,,,,,,,,,,,,,,,,,,,,,,,,,,,,,,,,,,NDXKHSJ,73.93077969993465,73.94338049995713,73.97640859987587,73.97640859987587,74.02630819985643,74.01252989983186,,,,,,,,,,,,,,,,,,,,,,,,,,,,,,,,,,,,,,,,,,,,,,,983509,1,60,0xC000,en,2025-03-19_20h53.13.046,AB,2024.2.4,59.87876942651462,2025-03-19 20h53.21.354040 +0500,
single,dual,2,0,2,READ,XWRITEX,7777777.0,10,7,3,f,f,related,None,,,,,,,,,,,,0,2,2,2,0,1,1,1,,,,,,,,,2,0,2,0,74.02630819985643,,,,,,,,,,,,,,,,,,,,,,,,,,,,,,,,,,,,,,,,,HKGNQRP,74.01439319993369,74.02630819985643,74.06006779987365,74.06006779987365,74.10998829989694,74.09575719991699,,,,,,,,,,,,,,,,,,,,,,,,,,,,,,,,,,,,,,,,,,,,,,,983509,1,60,0xC000,en,2025-03-19_20h53.13.046,AB,2024.2.4,59.87876942651462,2025-03-19 20h53.21.354040 +0500,
single,dual,1,1,0,READ,XWRITEX,7777777.0,10,7,3,f,f,related,None,,,None,0,j,0,0.9061131000053138,None,,,,0,2,2,2,0,1,1,1,,,,,,,,,,,,,,,,,,,,,,,,,,,,,,,,,,,,,,,,,,,,,,,,,,,,,,,,,,,,,74.09768449980766,74.10998829989694,,75.10145209985785,75.1015409999527,75.10161659982987,None,0,75.10171959991567,75.10177910001948,75.10182969993912,75.11010269983672,75.11010269983672,76.04635520000011,j,0,0.9061131000053138,None,76.046437199926,76.0599342000205,78.05968349985778,78.04620320000686,,,,,,,,,,,,,,,,,,,,,,,,,983509,1,60,0xC000,en,2025-03-19_20h53.13.046,AB,2024.2.4,59.87876942651462,2025-03-19 20h53.21.354040 +0500,
single,dual,0,0,0,SALAD,XXHANDX,3333333.0,10,7,3,f,j,unrelated,None,,,,,,,,,,,,0,2,2,2,0,2,2,2,0,0,0,0,,,,,,,,,80.05995669984259,,,,,,,,,,,78.04653349984437,78.04679629998282,78.04862949997187,78.05968349985778,79.06000089994632,79.06000089994632,80.05995669984259,80.04627950000577,WVDXSNB,80.04819739982486,80.05995669984259,80.0933351998683,80.0933351998683,80.14320509997196,80.12951509980485,,,,,,,,,,,,,,,,,,,,,,,,,,,,,,,,,,,,,,,,,,,,,,,,,,,,,,,,,,,,,,,,,,,,,983509,1,60,0xC000,en,2025-03-19_20h53.13.046,AB,2024.2.4,59.87876942651462,2025-03-19 20h53.21.354040 +0500,
single,dual,1,0,1,SALAD,XXHANDX,3333333.0,10,7,3,f,j,unrelated,None,,,,,,,,,,,,0,2,2,2,0,2,2,2,1,0,1,0,,,,,,,,,80.14320509997196,,,,,,,,,,,,,,,,,,,YRKZLGS,80.13128859992139,80.14320509997196,80.17662159982137,80.17662159982137,80.22667120001279,80.21297609992325,,,,,,,,,,,,,,,,,,,,,,,,,,,,,,,,,,,,,,,,,,,,,,,,,,,,,,,,,,,,,,,,,,,,,983509,1,60,0xC000,en,2025-03-19_20h53.13.046,AB,2024.2.4,59.87876942651462,2025-03-19 20h53.21.354040 +0500,
single,dual,2,0,2,SALAD,XXHANDX,3333333.0,10,7,3,f,j,unrelated,None,,,,,,,,,,,,0,2,2,2,0,2,2,2,2,0,2,0,,,,,,,,,80.22667120001279,,,,,,,,,,,,,,,,,,,LKXVYJC,80.21473839995451,80.22667120001279,80.25987909990363,80.25987909990363,80.3097444998566,80.29623599979095,,,,,,,,,,,,,,,,,,,,,,,,,,,,,,,,,,,,,,,,,,,,,,,,,,,,,,,,,,,,,,,,,,,,,983509,1,60,0xC000,en,2025-03-19_20h53.13.046,AB,2024.2.4,59.87876942651462,2025-03-19 20h53.21.354040 +0500,
single,dual,3,0,3,SALAD,XXHANDX,3333333.0,10,7,3,f,j,unrelated,None,,,,,,,,,,,,0,2,2,2,0,2,2,2,3,0,3,0,,,,,,,,,80.3097444998566,,,,,,,,,,,,,,,,,,,VBNTDGY,80.29825129988603,80.3097444998566,80.34333919989876,80.34333919989876,80.3933160000015,80.37947329995222,,,,,,,,,,,,,,,,,,,,,,,,,,,,,,,,,,,,,,,,,,,,,,,,,,,,,,,,,,,,,,,,,,,,,983509,1,60,0xC000,en,2025-03-19_20h53.13.046,AB,2024.2.4,59.87876942651462,2025-03-19 20h53.21.354040 +0500,
single,dual,4,0,4,SALAD,XXHANDX,3333333.0,10,7,3,f,j,unrelated,None,,,,,,,,,,,,0,2,2,2,0,2,2,2,4,0,4,0,,,,,,,,,80.3933160000015,,,,,,,,,,,,,,,,,,,BTNDJWF,80.38135429983959,80.3933160000015,80.42644189996645,80.42644189996645,80.47658659983426,80.46288089989685,,,,,,,,,,,,,,,,,,,,,,,,,,,,,,,,,,,,,,,,,,,,,,,,,,,,,,,,,,,,,,,,,,,,,983509,1,60,0xC000,en,2025-03-19_20h53.13.046,AB,2024.2.4,59.87876942651462,2025-03-19 20h53.21.354040 +0500,
single,dual,5,0,5,SALAD,XXHANDX,3333333.0,10,7,3,f,j,unrelated,None,,,,,,,,,,,,0,2,2,2,0,2,2,2,5,0,5,0,,,,,,,,,80.47658659983426,,,,,,,,,,,,,,,,,,,WJSKGHX,80.4646628999617,80.47658659983426,80.51001399988309,80.51001399988309,80.56005359999835,80.54604669986293,,,,,,,,,,,,,,,,,,,,,,,,,,,,,,,,,,,,,,,,,,,,,,,,,,,,,,,,,,,,,,,,,,,,,983509,1,60,0xC000,en,2025-03-19_20h53.13.046,AB,2024.2.4,59.87876942651462,2025-03-19 20h53.21.354040 +0500,
